subject_name subjectNumber iTrial unshuffled_trial targetOrientation flankersOrientation response correct onscreen_stim_duration magicShows rt date time_of_day deltaX deltaY surpriseClip isClipTrial
72LV31_F20 2 1 71 -45 45 left 1 5.000000e-01 /Users/lab/Documents/magic3Definitivo/stim/9_noeffect.mov 775 28-Apr-2017 10:34:48 2.312440e+02 -3.039462e+02 0 1
72LV31_F20 2 2 16 -45 -45 left 1 5.000000e-01 /Users/lab/Documents/magic3Definitivo/stim/2_noeffect.mov 577 28-Apr-2017 10:34:51 1.637973e+02 4.734606e+02 0 0
72LV31_F20 2 3 7 -45 45 left 1 5.000000e-01 /Users/lab/Documents/magic3Definitivo/stim/1_noeffect.mov 528 28-Apr-2017 10:34:54 -3.384641e+02 4.996027e+02 1 0
72LV31_F20 2 4 36 -45 -45 left 1 5.000000e-01 /Users/lab/Documents/magic3Definitivo/stim/5_effect.mov 629 28-Apr-2017 10:35:11 -2.292313e+02 -1.816512e+02 1 1
72LV31_F20 2 5 41 45 45 right 1 5.000000e-01 /Users/lab/Documents/magic3Definitivo/stim/6_effect.mov 609 28-Apr-2017 10:35:14 -5.252601e+01 -1.733879e+01 1 0
72LV31_F20 2 6 64 -45 -45 left 1 5.000000e-01 /Users/lab/Documents/magic3Definitivo/stim/8_noeffect.mov 420 28-Apr-2017 10:35:16 -2.999989e+02 -2.485307e+02 0 0
72LV31_F20 2 7 53 45 45 right 1 5.000000e-01 /Users/lab/Documents/magic3Definitivo/stim/7_noeffect.mov 594 28-Apr-2017 10:35:19 -5.842270e+01 -1.430388e+02 0 0
72LV31_F20 2 8 66 45 -45 right 1 5.000000e-01 /Users/lab/Documents/magic3Definitivo/stim/9_effect.mov 711 28-Apr-2017 10:35:41 -3.960960e+01 -1.076581e+02 1 1
72LV31_F20 2 9 19 -45 45 left 1 5.000000e-01 /Users/lab/Documents/magic3Definitivo/stim/3_effect.mov 761 28-Apr-2017 10:35:44 4.270659e+02 3.469379e+02 1 0
72LV31_F20 2 10 49 45 45 right 1 5.000000e-01 /Users/lab/Documents/magic3Definitivo/stim/7_effect.mov 544 28-Apr-2017 10:35:47 2.226209e+02 -3.493510e+02 1 0
72LV31_F20 2 11 28 -45 -45 left 1 5.000000e-01 /Users/lab/Documents/magic3Definitivo/stim/4_effect.mov 561 28-Apr-2017 10:35:50 4.763360e+01 3.724250e+02 1 0
72LV31_F20 2 12 32 -45 -45 left 1 5.000000e-01 /Users/lab/Documents/magic3Definitivo/stim/4_noeffect.mov 643 28-Apr-2017 10:36:07 -3.175773e+02 1.756104e+02 0 1
72LV31_F20 2 13 23 -45 45 left 1 5.000000e-01 /Users/lab/Documents/magic3Definitivo/stim/3_noeffect.mov 473 28-Apr-2017 10:36:10 1.934687e+02 -3.807434e+02 0 0
72LV31_F20 2 14 38 45 -45 right 1 5.000000e-01 /Users/lab/Documents/magic3Definitivo/stim/5_noeffect.mov 544 28-Apr-2017 10:36:13 1.630753e+02 3.790426e+02 0 0
72LV31_F20 2 15 18 45 -45 right 1 5.000000e-01 /Users/lab/Documents/magic3Definitivo/stim/3_effect.mov 410 28-Apr-2017 10:36:15 1.426404e+02 -8.887223e+01 1 0
72LV31_F20 2 16 73 45 45 right 1 5.000000e-01 /Users/lab/Documents/magic3Definitivo/stim/10_effect.mov 594 28-Apr-2017 10:36:30 1.266413e+02 -4.694748e+02 1 1
72LV31_F20 2 17 79 -45 45 left 1 5.000000e-01 /Users/lab/Documents/magic3Definitivo/stim/10_noeffect.mov 493 28-Apr-2017 10:36:33 3.585218e+01 -4.005843e+02 0 0
72LV31_F20 2 18 48 -45 -45 left 1 5.000000e-01 /Users/lab/Documents/magic3Definitivo/stim/6_noeffect.mov 629 28-Apr-2017 10:36:36 4.905031e+02 -1.265183e+02 0 0
72LV31_F20 2 19 20 -45 -45 left 1 5.000000e-01 /Users/lab/Documents/magic3Definitivo/stim/3_effect.mov 495 28-Apr-2017 10:36:39 -3.655957e+02 1.923310e+02 1 0
72LV31_F20 2 20 3 -45 45 left 1 5.000000e-01 /Users/lab/Documents/magic3Definitivo/stim/1_effect.mov 710 28-Apr-2017 10:37:04 -1.847903e+02 3.766109e+02 1 1
72LV31_F20 2 21 63 -45 45 left 1 5.000000e-01 /Users/lab/Documents/magic3Definitivo/stim/8_noeffect.mov 628 28-Apr-2017 10:37:07 -3.340051e+02 -4.465392e+02 0 0
72LV31_F20 2 22 9 45 45 right 1 5.000000e-01 /Users/lab/Documents/magic3Definitivo/stim/2_effect.mov 644 28-Apr-2017 10:37:10 -2.780562e+02 -1.224184e+02 1 0
72LV31_F20 2 23 42 45 -45 right 1 5.000000e-01 /Users/lab/Documents/magic3Definitivo/stim/6_effect.mov 628 28-Apr-2017 10:37:13 1.849244e+02 -1.472724e+02 1 0
72LV31_F20 2 24 80 -45 -45 left 1 5.000000e-01 /Users/lab/Documents/magic3Definitivo/stim/10_noeffect.mov 559 28-Apr-2017 10:37:26 2.576411e+02 4.991182e+02 0 1
72LV31_F20 2 25 46 45 -45 right 1 5.000000e-01 /Users/lab/Documents/magic3Definitivo/stim/6_noeffect.mov 528 28-Apr-2017 10:37:29 3.411067e+02 4.145863e+02 0 0
72LV31_F20 2 26 51 -45 45 left 1 5.000000e-01 /Users/lab/Documents/magic3Definitivo/stim/7_effect.mov 545 28-Apr-2017 10:37:32 1.319669e+02 2.158750e+02 1 0
72LV31_F20 2 27 56 -45 -45 left 1 5.000000e-01 /Users/lab/Documents/magic3Definitivo/stim/7_noeffect.mov 479 28-Apr-2017 10:37:35 -3.960916e+02 -4.227552e+02 0 0
72LV31_F20 2 28 60 -45 -45 left 1 5.000000e-01 /Users/lab/Documents/magic3Definitivo/stim/8_effect.mov 593 28-Apr-2017 10:37:56 -2.425612e+02 2.013481e+02 1 1
72LV31_F20 2 29 10 45 -45 right 1 5.000000e-01 /Users/lab/Documents/magic3Definitivo/stim/2_effect.mov 562 28-Apr-2017 10:37:59 -2.938072e+01 4.522326e+02 1 0
72LV31_F20 2 30 14 45 -45 right 1 5.000000e-01 /Users/lab/Documents/magic3Definitivo/stim/2_noeffect.mov 357 28-Apr-2017 10:38:01 3.601500e+02 -2.581487e+02 0 0
72LV31_F20 2 31 29 45 45 right 1 5.000000e-01 /Users/lab/Documents/magic3Definitivo/stim/4_noeffect.mov 473 28-Apr-2017 10:38:04 3.668335e+02 3.161033e+02 0 0
72LV31_F20 2 32 17 45 45 right 1 5.000000e-01 /Users/lab/Documents/magic3Definitivo/stim/3_effect.mov 628 28-Apr-2017 10:38:23 1.600171e+02 4.870051e+02 1 1
72LV31_F20 2 33 31 -45 45 left 1 5.000000e-01 /Users/lab/Documents/magic3Definitivo/stim/4_noeffect.mov 545 28-Apr-2017 10:38:26 -2.897216e+02 1.278370e+02 0 0
72LV31_F20 2 34 5 45 45 right 1 5.000000e-01 /Users/lab/Documents/magic3Definitivo/stim/1_noeffect.mov 440 28-Apr-2017 10:38:28 8.082876e+01 2.048341e+01 1 0
72LV31_F20 2 35 15 -45 45 left 1 5.000000e-01 /Users/lab/Documents/magic3Definitivo/stim/2_noeffect.mov 416 28-Apr-2017 10:38:31 -1.435283e+02 -4.527536e+01 0 0
72LV31_F20 2 36 55 -45 45 left 1 5.000000e-01 /Users/lab/Documents/magic3Definitivo/stim/7_noeffect.mov 527 28-Apr-2017 10:38:50 -3.311011e+02 -2.209119e+02 0 1
72LV31_F20 2 37 43 -45 45 left 1 5.000000e-01 /Users/lab/Documents/magic3Definitivo/stim/6_effect.mov 386 28-Apr-2017 10:38:53 -2.767209e+02 -2.030963e+02 1 0
72LV31_F20 2 38 69 45 45 right 1 5.000000e-01 /Users/lab/Documents/magic3Definitivo/stim/9_noeffect.mov 578 28-Apr-2017 10:38:56 2.298485e+02 -4.893809e+02 0 0
72LV31_F20 2 39 24 -45 -45 left 1 5.000000e-01 /Users/lab/Documents/magic3Definitivo/stim/3_noeffect.mov 794 28-Apr-2017 10:38:59 -4.852314e+01 1.380751e+02 0 0
72LV31_F20 2 40 68 -45 -45 left 1 5.000000e-01 /Users/lab/Documents/magic3Definitivo/stim/9_effect.mov 559 28-Apr-2017 10:39:20 2.371908e+01 4.946995e+02 1 1
72LV31_F20 2 41 36 -45 45 left 1 5.000000e-01 /Users/lab/Documents/magic3Definitivo/stim/5_effect.mov 548 28-Apr-2017 10:39:23 -3.506986e+02 -3.141664e+02 1 0
72LV31_F20 2 42 44 -45 -45 left 1 5.000000e-01 /Users/lab/Documents/magic3Definitivo/stim/6_effect.mov 389 28-Apr-2017 10:39:26 -4.409597e+00 -3.999598e+02 1 0
72LV31_F20 2 43 37 45 45 right 1 5.000000e-01 /Users/lab/Documents/magic3Definitivo/stim/5_noeffect.mov 470 28-Apr-2017 10:39:29 -1.006604e+02 2.618335e+02 0 0
72LV31_F20 2 44 61 45 45 right 1 5.000000e-01 /Users/lab/Documents/magic3Definitivo/stim/8_noeffect.mov 809 28-Apr-2017 10:39:50 3.861268e+02 -2.496122e+02 0 1
72LV31_F20 2 45 33 45 45 right 1 5.000000e-01 /Users/lab/Documents/magic3Definitivo/stim/5_effect.mov 595 28-Apr-2017 10:39:53 -1.756573e+01 -4.513243e+02 1 0
72LV31_F20 2 46 58 45 -45 right 1 5.000000e-01 /Users/lab/Documents/magic3Definitivo/stim/8_effect.mov 594 28-Apr-2017 10:39:56 -4.099045e+02 -9.220297e+01 1 0
72LV31_F20 2 47 2 45 -45 right 1 5.000000e-01 /Users/lab/Documents/magic3Definitivo/stim/1_effect.mov 477 28-Apr-2017 10:39:59 2.102202e+02 -1.671406e+02 1 0
72LV31_F20 2 48 25 45 45 right 1 5.000000e-01 /Users/lab/Documents/magic3Definitivo/stim/4_effect.mov 794 28-Apr-2017 10:40:16 3.295274e+02 1.190641e+02 1 1
72LV31_F20 2 49 76 -45 -45 left 1 5.000000e-01 /Users/lab/Documents/magic3Definitivo/stim/10_effect.mov 545 28-Apr-2017 10:40:19 1.567075e+02 4.137073e+02 1 0
72LV31_F20 2 50 40 -45 -45 left 1 5.000000e-01 /Users/lab/Documents/magic3Definitivo/stim/5_noeffect.mov 521 28-Apr-2017 10:40:21 -3.323395e+02 -3.157674e+02 0 0
72LV31_F20 2 51 72 -45 -45 left 1 5.000000e-01 /Users/lab/Documents/magic3Definitivo/stim/9_noeffect.mov 401 28-Apr-2017 10:40:24 -3.930947e+02 -3.666767e+02 0 0
72LV31_F20 2 52 12 -45 -45 left 1 5.000000e-01 /Users/lab/Documents/magic3Definitivo/stim/2_effect.mov 511 28-Apr-2017 10:40:49 -4.083488e+02 2.316965e+02 1 1
72LV31_F20 2 53 47 -45 45 left 1 5.000000e-01 /Users/lab/Documents/magic3Definitivo/stim/6_noeffect.mov 579 28-Apr-2017 10:40:52 4.443237e+02 3.014172e+02 0 0
72LV31_F20 2 54 78 45 -45 right 1 5.000000e-01 /Users/lab/Documents/magic3Definitivo/stim/10_noeffect.mov 628 28-Apr-2017 10:40:55 -1.085654e+02 3.549473e+02 0 0
72LV31_F20 2 55 6 45 -45 right 1 5.000000e-01 /Users/lab/Documents/magic3Definitivo/stim/1_noeffect.mov 339 28-Apr-2017 10:40:58 3.283003e+02 -2.629420e+02 1 0
72LV31_F20 2 56 65 45 45 right 1 5.000000e-01 /Users/lab/Documents/magic3Definitivo/stim/9_effect.mov 543 28-Apr-2017 10:41:20 -3.558207e+02 3.025639e+01 1 1
72LV31_F20 2 57 54 45 -45 right 1 5.000000e-01 /Users/lab/Documents/magic3Definitivo/stim/7_noeffect.mov 461 28-Apr-2017 10:41:22 -4.978449e+01 -1.397992e+02 0 0
72LV31_F20 2 58 21 45 45 right 1 5.000000e-01 /Users/lab/Documents/magic3Definitivo/stim/3_noeffect.mov 778 28-Apr-2017 10:41:26 4.572300e+02 -1.581466e+02 0 0
72LV31_F20 2 59 52 -45 -45 left 1 5.000000e-01 /Users/lab/Documents/magic3Definitivo/stim/7_effect.mov 544 28-Apr-2017 10:41:28 9.693490e+01 3.243480e+02 1 0
72LV31_F20 2 60 57 45 45 right 1 5.000000e-01 /Users/lab/Documents/magic3Definitivo/stim/8_effect.mov 694 28-Apr-2017 10:41:49 1.450131e+02 1.762719e+02 1 1
72LV31_F20 2 61 34 45 -45 right 1 5.000000e-01 /Users/lab/Documents/magic3Definitivo/stim/5_effect.mov 528 28-Apr-2017 10:41:52 -1.876830e+02 -2.268511e+02 1 0
72LV31_F20 2 62 27 -45 45 left 1 5.000000e-01 /Users/lab/Documents/magic3Definitivo/stim/4_effect.mov 545 28-Apr-2017 10:41:55 -1.442751e+02 1.865703e+02 1 0
72LV31_F20 2 63 45 45 45 right 1 5.000000e-01 /Users/lab/Documents/magic3Definitivo/stim/6_noeffect.mov 428 28-Apr-2017 10:41:58 1.190636e+02 -2.721186e+02 0 0
72LV31_F20 2 64 77 45 45 right 1 5.000000e-01 /Users/lab/Documents/magic3Definitivo/stim/10_noeffect.mov 542 28-Apr-2017 10:42:12 3.420797e+02 -9.127039e+01 0 1
72LV31_F20 2 65 39 -45 45 left 1 5.000000e-01 /Users/lab/Documents/magic3Definitivo/stim/5_noeffect.mov 494 28-Apr-2017 10:42:14 3.097812e+02 -6.452070e+01 0 0
72LV31_F20 2 66 11 -45 45 left 1 5.000000e-01 /Users/lab/Documents/magic3Definitivo/stim/2_effect.mov 467 28-Apr-2017 10:42:17 7.367847e+01 -3.801469e+02 1 0
72LV31_F20 2 67 50 45 -45 right 1 5.000000e-01 /Users/lab/Documents/magic3Definitivo/stim/7_effect.mov 545 28-Apr-2017 10:42:20 1.770389e+02 -2.838454e+02 1 0
72LV31_F20 2 68 4 -45 -45 left 1 5.000000e-01 /Users/lab/Documents/magic3Definitivo/stim/1_effect.mov 609 28-Apr-2017 10:42:45 8.876507e+01 -4.485228e+02 1 1
72LV31_F20 2 69 67 -45 45 left 1 5.000000e-01 /Users/lab/Documents/magic3Definitivo/stim/9_effect.mov 579 28-Apr-2017 10:42:48 -2.321989e+02 -3.901783e+02 1 0
72LV31_F20 2 70 22 45 -45 right 1 5.000000e-01 /Users/lab/Documents/magic3Definitivo/stim/3_noeffect.mov 440 28-Apr-2017 10:42:51 2.955055e+02 -3.936030e+02 0 0
72LV31_F20 2 71 8 -45 -45 left 1 5.000000e-01 /Users/lab/Documents/magic3Definitivo/stim/1_noeffect.mov 487 28-Apr-2017 10:42:54 -2.588740e+02 1.299249e+02 1 0
72LV31_F20 2 72 70 45 -45 right 1 5.000000e-01 /Users/lab/Documents/magic3Definitivo/stim/9_noeffect.mov 467 28-Apr-2017 10:43:15 -1.101427e+02 -1.081817e+02 0 1
72LV31_F20 2 73 30 45 -45 right 1 5.000000e-01 /Users/lab/Documents/magic3Definitivo/stim/4_noeffect.mov 561 28-Apr-2017 10:43:18 -2.560452e+02 -1.199677e+02 0 0
72LV31_F20 2 74 75 -45 45 left 1 5.000000e-01 /Users/lab/Documents/magic3Definitivo/stim/10_effect.mov 545 28-Apr-2017 10:43:21 3.174531e+02 1.073380e+02 1 0
72LV31_F20 2 75 26 45 -45 right 1 5.000000e-01 /Users/lab/Documents/magic3Definitivo/stim/4_effect.mov 510 28-Apr-2017 10:43:24 2.827663e+02 2.011766e+02 1 0
72LV31_F20 2 76 62 45 -45 right 1 5.000000e-01 /Users/lab/Documents/magic3Definitivo/stim/8_noeffect.mov 627 28-Apr-2017 10:43:45 4.620594e+02 -1.871717e+02 0 1
72LV31_F20 2 77 74 45 -45 right 1 5.000000e-01 /Users/lab/Documents/magic3Definitivo/stim/10_effect.mov 499 28-Apr-2017 10:43:47 2.403991e+02 -3.394112e+02 1 0
72LV31_F20 2 78 1 45 45 right 1 5.000000e-01 /Users/lab/Documents/magic3Definitivo/stim/1_effect.mov 545 28-Apr-2017 10:43:50 -3.829647e+02 1.903812e+02 1 0
72LV31_F20 2 79 59 -45 45 left 1 5.000000e-01 /Users/lab/Documents/magic3Definitivo/stim/8_effect.mov 494 28-Apr-2017 10:43:53 4.809534e+02 -3.802929e+01 1 0
72LV31_F20 2 80 13 45 45 right 1 5.000000e-01 /Users/lab/Documents/magic3Definitivo/stim/2_noeffect.mov 490 28-Apr-2017 10:43:56 4.464878e+01 -3.979787e+02 0 0
