subject_name subjectNumber iTrial unshuffled_trial targetOrientation flankersOrientation response correct onscreen_stim_duration magicShows rt date time_of_day deltaX deltaY surpriseClip isClipTrial
16AP04_F19 4 1 34 45 -45 right 1 5.000000e-01 /Users/lab/Documents/magic3Definitivo/stim/5_effect.mov 562 04-May-2017 14:33:20 2.204499e+02 -4.448742e+02 1 1
16AP04_F19 4 2 50 45 -45 right 1 5.000000e-01 /Users/lab/Documents/magic3Definitivo/stim/7_effect.mov 511 04-May-2017 14:33:23 -1.084153e+02 -2.159552e+02 1 0
16AP04_F19 4 3 15 -45 45 left 1 5.000000e-01 /Users/lab/Documents/magic3Definitivo/stim/2_noeffect.mov 523 04-May-2017 14:33:26 -3.928534e+02 1.668022e+02 0 0
16AP04_F19 4 4 60 -45 -45 left 1 5.000000e-01 /Users/lab/Documents/magic3Definitivo/stim/8_effect.mov 486 04-May-2017 14:33:46 -1.026511e+02 -2.491703e+02 1 1
16AP04_F19 4 5 39 -45 45 left 1 5.000000e-01 /Users/lab/Documents/magic3Definitivo/stim/5_noeffect.mov 575 04-May-2017 14:33:49 3.245630e+02 1.637767e+02 0 0
16AP04_F19 4 6 40 -45 -45 left 1 5.000000e-01 /Users/lab/Documents/magic3Definitivo/stim/5_noeffect.mov 451 04-May-2017 14:33:52 -2.888354e+02 -3.649298e+02 0 0
16AP04_F19 4 7 56 -45 -45 left 1 5.000000e-01 /Users/lab/Documents/magic3Definitivo/stim/7_noeffect.mov 379 04-May-2017 14:33:55 1.427336e+02 -2.598721e+01 0 0
16AP04_F19 4 8 80 -45 -45 left 1 5.000000e-01 /Users/lab/Documents/magic3Definitivo/stim/10_noeffect.mov 484 04-May-2017 14:34:09 -3.658566e+02 4.376351e+02 0 1
16AP04_F19 4 9 20 -45 -45 left 1 5.000000e-01 /Users/lab/Documents/magic3Definitivo/stim/3_effect.mov 450 04-May-2017 14:34:11 -3.669059e+02 -4.512766e+02 1 0
16AP04_F19 4 10 10 45 -45 right 1 5.000000e-01 /Users/lab/Documents/magic3Definitivo/stim/2_effect.mov 629 04-May-2017 14:34:14 1.903222e+02 3.220892e+02 1 0
16AP04_F19 4 11 64 -45 -45 left 1 5.000000e-01 /Users/lab/Documents/magic3Definitivo/stim/8_noeffect.mov 545 04-May-2017 14:34:17 3.007966e+02 -2.110845e+02 0 0
16AP04_F19 4 12 59 -45 45 left 1 5.000000e-01 /Users/lab/Documents/magic3Definitivo/stim/8_effect.mov 578 04-May-2017 14:34:38 2.075424e+02 -4.450194e+01 1 1
16AP04_F19 4 13 68 -45 -45 left 1 5.000000e-01 /Users/lab/Documents/magic3Definitivo/stim/9_effect.mov 390 04-May-2017 14:34:41 1.941007e+02 9.825775e+00 1 0
16AP04_F19 4 14 45 45 45 right 1 5.000000e-01 /Users/lab/Documents/magic3Definitivo/stim/6_noeffect.mov 445 04-May-2017 14:34:44 -2.526049e+02 -4.656907e+02 0 0
16AP04_F19 4 15 21 45 45 right 1 5.000000e-01 /Users/lab/Documents/magic3Definitivo/stim/3_noeffect.mov 511 04-May-2017 14:34:46 -3.385745e+02 1.041593e+02 0 0
16AP04_F19 4 16 51 -45 45 left 1 5.000000e-01 /Users/lab/Documents/magic3Definitivo/stim/7_effect.mov 644 04-May-2017 14:35:05 -3.291518e+02 1.604185e+02 1 1
16AP04_F19 4 17 76 -45 -45 left 1 5.000000e-01 /Users/lab/Documents/magic3Definitivo/stim/10_effect.mov 438 04-May-2017 14:35:08 -1.881009e+02 1.417699e+02 1 0
16AP04_F19 4 18 63 -45 45 right 0 5.000000e-01 /Users/lab/Documents/magic3Definitivo/stim/8_noeffect.mov 447 04-May-2017 14:35:11 3.293898e+02 4.476635e+02 0 0
16AP04_F19 4 19 53 45 45 right 1 5.000000e-01 /Users/lab/Documents/magic3Definitivo/stim/7_noeffect.mov 465 04-May-2017 14:35:14 -3.499135e+02 7.374606e+01 0 0
16AP04_F19 4 20 57 45 45 right 1 5.000000e-01 /Users/lab/Documents/magic3Definitivo/stim/8_effect.mov 610 04-May-2017 14:35:35 8.360709e+01 -4.814961e+01 1 1
16AP04_F19 4 21 71 -45 45 left 1 5.000000e-01 /Users/lab/Documents/magic3Definitivo/stim/9_noeffect.mov 595 04-May-2017 14:35:38 2.640554e+02 -3.368747e+01 0 0
16AP04_F19 4 22 79 -45 45 left 1 5.000000e-01 /Users/lab/Documents/magic3Definitivo/stim/10_noeffect.mov 483 04-May-2017 14:35:40 -6.405606e+00 4.451875e+01 0 0
16AP04_F19 4 23 46 45 -45 right 1 5.000000e-01 /Users/lab/Documents/magic3Definitivo/stim/6_noeffect.mov 594 04-May-2017 14:35:43 -1.426527e+02 -1.543497e+02 0 0
16AP04_F19 4 24 11 -45 45 left 1 5.000000e-01 /Users/lab/Documents/magic3Definitivo/stim/2_effect.mov 644 04-May-2017 14:36:09 3.343861e+02 3.042978e+02 1 1
16AP04_F19 4 25 23 -45 45 left 1 5.000000e-01 /Users/lab/Documents/magic3Definitivo/stim/3_noeffect.mov 611 04-May-2017 14:36:12 3.697641e+02 2.797732e+02 0 0
16AP04_F19 4 26 75 -45 45 left 1 5.000000e-01 /Users/lab/Documents/magic3Definitivo/stim/10_effect.mov 578 04-May-2017 14:36:15 2.618028e+01 -2.410771e+01 1 0
16AP04_F19 4 27 38 45 -45 right 1 5.000000e-01 /Users/lab/Documents/magic3Definitivo/stim/5_noeffect.mov 466 04-May-2017 14:36:17 3.795399e+00 -2.910538e+02 0 0
16AP04_F19 4 28 58 45 -45 right 1 5.000000e-01 /Users/lab/Documents/magic3Definitivo/stim/8_effect.mov 711 04-May-2017 14:36:38 -1.909713e+02 -8.666372e+01 1 1
16AP04_F19 4 29 62 45 -45 right 1 5.000000e-01 /Users/lab/Documents/magic3Definitivo/stim/8_noeffect.mov 660 04-May-2017 14:36:41 1.071407e+02 -2.784319e+02 0 0
16AP04_F19 4 30 16 -45 -45 left 1 5.000000e-01 /Users/lab/Documents/magic3Definitivo/stim/2_noeffect.mov 528 04-May-2017 14:36:44 3.934904e+02 -3.582148e+01 0 0
16AP04_F19 4 31 5 45 45 right 1 5.000000e-01 /Users/lab/Documents/magic3Definitivo/stim/1_noeffect.mov 479 04-May-2017 14:36:47 -4.548912e+02 -3.448802e+02 1 0
16AP04_F19 4 32 37 45 45 right 1 5.000000e-01 /Users/lab/Documents/magic3Definitivo/stim/5_noeffect.mov 561 04-May-2017 14:37:03 1.315435e+02 -1.417211e+02 0 1
16AP04_F19 4 33 2 45 -45 right 1 5.000000e-01 /Users/lab/Documents/magic3Definitivo/stim/1_effect.mov 545 04-May-2017 14:37:06 -2.816255e+02 -5.235896e+01 1 0
16AP04_F19 4 34 18 45 -45 right 1 5.000000e-01 /Users/lab/Documents/magic3Definitivo/stim/3_effect.mov 417 04-May-2017 14:37:09 1.305549e+01 -1.710095e+02 1 0
16AP04_F19 4 35 12 -45 -45 left 1 5.000000e-01 /Users/lab/Documents/magic3Definitivo/stim/2_effect.mov 531 04-May-2017 14:37:12 -1.392736e+02 1.387229e+02 1 0
16AP04_F19 4 36 52 -45 -45 left 1 5.000000e-01 /Users/lab/Documents/magic3Definitivo/stim/7_effect.mov 451 04-May-2017 14:37:31 -5.477083e+01 6.354853e+01 1 1
16AP04_F19 4 37 33 45 45 right 1 5.000000e-01 /Users/lab/Documents/magic3Definitivo/stim/5_effect.mov 484 04-May-2017 14:37:33 1.669258e+02 4.803413e+02 1 0
16AP04_F19 4 38 47 -45 45 left 1 5.000000e-01 /Users/lab/Documents/magic3Definitivo/stim/6_noeffect.mov 611 04-May-2017 14:37:36 -4.795411e+02 -1.751442e+01 0 0
16AP04_F19 4 39 3 -45 45 left 1 5.000000e-01 /Users/lab/Documents/magic3Definitivo/stim/1_effect.mov 594 04-May-2017 14:37:39 -2.077752e+02 3.753250e+01 1 0
16AP04_F19 4 40 22 45 -45 right 1 5.000000e-01 /Users/lab/Documents/magic3Definitivo/stim/3_noeffect.mov 712 04-May-2017 14:37:58 9.722267e+01 -1.023241e+02 0 1
16AP04_F19 4 41 19 -45 45 left 1 5.000000e-01 /Users/lab/Documents/magic3Definitivo/stim/3_effect.mov 544 04-May-2017 14:38:00 -3.111387e+02 -4.461671e+01 1 0
16AP04_F19 4 42 61 45 45 right 1 5.000000e-01 /Users/lab/Documents/magic3Definitivo/stim/8_noeffect.mov 466 04-May-2017 14:38:03 -3.650106e+02 -2.578367e+02 0 0
16AP04_F19 4 43 14 45 -45 right 1 5.000000e-01 /Users/lab/Documents/magic3Definitivo/stim/2_noeffect.mov 662 04-May-2017 14:38:06 -3.008144e-01 2.509880e+02 0 0
16AP04_F19 4 44 73 45 45 right 1 5.000000e-01 /Users/lab/Documents/magic3Definitivo/stim/10_effect.mov 578 04-May-2017 14:38:21 2.741608e+02 -1.886588e+02 1 1
16AP04_F19 4 45 54 45 -45 right 1 5.000000e-01 /Users/lab/Documents/magic3Definitivo/stim/7_noeffect.mov 678 04-May-2017 14:38:24 -2.933675e+02 4.560930e+02 0 0
16AP04_F19 4 46 25 45 45 right 1 5.000000e-01 /Users/lab/Documents/magic3Definitivo/stim/4_effect.mov 477 04-May-2017 14:38:26 -3.376225e+02 -2.725515e+02 1 0
16AP04_F19 4 47 30 45 -45 right 1 5.000000e-01 /Users/lab/Documents/magic3Definitivo/stim/4_noeffect.mov 578 04-May-2017 14:38:29 3.804548e+02 -1.026142e+02 0 0
16AP04_F19 4 48 17 45 45 right 1 5.000000e-01 /Users/lab/Documents/magic3Definitivo/stim/3_effect.mov 679 04-May-2017 14:38:47 4.745577e+02 6.065525e+01 1 1
16AP04_F19 4 49 7 -45 45 left 1 5.000000e-01 /Users/lab/Documents/magic3Definitivo/stim/1_noeffect.mov 594 04-May-2017 14:38:50 4.213913e+02 -3.824975e+02 1 0
16AP04_F19 4 50 6 45 -45 right 1 5.000000e-01 /Users/lab/Documents/magic3Definitivo/stim/1_noeffect.mov 557 04-May-2017 14:38:53 5.910334e+01 3.533698e+02 1 0
16AP04_F19 4 51 36 -45 45 left 1 5.000000e-01 /Users/lab/Documents/magic3Definitivo/stim/5_effect.mov 612 04-May-2017 14:38:56 2.967548e+02 3.721890e+02 1 0
16AP04_F19 4 52 26 45 -45 right 1 5.000000e-01 /Users/lab/Documents/magic3Definitivo/stim/4_effect.mov 677 04-May-2017 14:39:13 2.883739e+02 4.106422e+02 1 1
16AP04_F19 4 53 24 -45 -45 left 1 5.000000e-01 /Users/lab/Documents/magic3Definitivo/stim/3_noeffect.mov 485 04-May-2017 14:39:16 -2.724996e+02 1.988222e+02 0 0
16AP04_F19 4 54 31 -45 45 left 1 5.000000e-01 /Users/lab/Documents/magic3Definitivo/stim/4_noeffect.mov 432 04-May-2017 14:39:19 -7.804345e+01 2.377319e+02 0 0
16AP04_F19 4 55 77 45 45 right 1 5.000000e-01 /Users/lab/Documents/magic3Definitivo/stim/10_noeffect.mov 793 04-May-2017 14:39:22 -2.707543e+02 2.999732e+02 0 0
16AP04_F19 4 56 48 -45 -45 left 1 5.000000e-01 /Users/lab/Documents/magic3Definitivo/stim/6_noeffect.mov 479 04-May-2017 14:39:37 4.678342e+02 -3.059523e+02 0 1
16AP04_F19 4 57 49 45 45 right 1 5.000000e-01 /Users/lab/Documents/magic3Definitivo/stim/7_effect.mov 444 04-May-2017 14:39:39 -3.883564e+02 -2.638769e+02 1 0
16AP04_F19 4 58 27 -45 45 left 1 5.000000e-01 /Users/lab/Documents/magic3Definitivo/stim/4_effect.mov 477 04-May-2017 14:39:42 1.381955e+02 9.445541e+01 1 0
16AP04_F19 4 59 69 45 45 right 1 5.000000e-01 /Users/lab/Documents/magic3Definitivo/stim/9_noeffect.mov 422 04-May-2017 14:39:45 -1.756797e+02 4.163091e+02 0 0
16AP04_F19 4 60 65 45 45 right 1 5.000000e-01 /Users/lab/Documents/magic3Definitivo/stim/9_effect.mov 711 04-May-2017 14:40:07 -2.752726e+02 4.775954e+02 1 1
16AP04_F19 4 61 55 -45 45 left 1 5.000000e-01 /Users/lab/Documents/magic3Definitivo/stim/7_noeffect.mov 579 04-May-2017 14:40:10 3.509483e+02 -2.601741e+02 0 0
16AP04_F19 4 62 13 45 45 right 1 5.000000e-01 /Users/lab/Documents/magic3Definitivo/stim/2_noeffect.mov 458 04-May-2017 14:40:12 2.243631e+02 1.454616e+02 0 0
16AP04_F19 4 63 74 45 -45 right 1 5.000000e-01 /Users/lab/Documents/magic3Definitivo/stim/10_effect.mov 712 04-May-2017 14:40:15 3.915306e+02 -7.082022e+01 1 0
16AP04_F19 4 64 44 -45 -45 left 1 5.000000e-01 /Users/lab/Documents/magic3Definitivo/stim/6_effect.mov 676 04-May-2017 14:40:30 6.521569e+01 -4.565367e+02 1 1
16AP04_F19 4 65 4 -45 -45 left 1 5.000000e-01 /Users/lab/Documents/magic3Definitivo/stim/1_effect.mov 429 04-May-2017 14:40:33 1.220709e+02 1.635111e+02 1 0
16AP04_F19 4 66 9 45 45 right 1 5.000000e-01 /Users/lab/Documents/magic3Definitivo/stim/2_effect.mov 418 04-May-2017 14:40:36 -7.349326e+01 -1.762848e+02 1 0
16AP04_F19 4 67 67 -45 45 left 1 5.000000e-01 /Users/lab/Documents/magic3Definitivo/stim/9_effect.mov 608 04-May-2017 14:40:39 1.532059e+02 4.433979e+02 1 0
16AP04_F19 4 68 41 45 45 right 1 5.000000e-01 /Users/lab/Documents/magic3Definitivo/stim/6_effect.mov 644 04-May-2017 14:40:54 -3.676079e+02 -1.659350e+02 1 1
16AP04_F19 4 69 32 -45 -45 left 1 5.000000e-01 /Users/lab/Documents/magic3Definitivo/stim/4_noeffect.mov 489 04-May-2017 14:40:57 -4.977127e+02 4.669297e+02 0 0
16AP04_F19 4 70 36 -45 -45 left 1 5.000000e-01 /Users/lab/Documents/magic3Definitivo/stim/5_effect.mov 449 04-May-2017 14:41:00 1.757509e+01 4.784039e+02 1 0
16AP04_F19 4 71 78 45 -45 left 0 5.000000e-01 /Users/lab/Documents/magic3Definitivo/stim/10_noeffect.mov 393 04-May-2017 14:41:02 -1.577929e+02 -1.126101e+01 0 0
16AP04_F19 4 72 1 45 45 right 1 5.000000e-01 /Users/lab/Documents/magic3Definitivo/stim/1_effect.mov 678 04-May-2017 14:41:27 1.159932e+02 -4.456318e+02 1 1
16AP04_F19 4 73 43 -45 45 left 1 5.000000e-01 /Users/lab/Documents/magic3Definitivo/stim/6_effect.mov 612 04-May-2017 14:41:30 2.967403e+02 1.335817e+02 1 0
16AP04_F19 4 74 29 45 45 right 1 5.000000e-01 /Users/lab/Documents/magic3Definitivo/stim/4_noeffect.mov 528 04-May-2017 14:41:33 2.484880e+02 2.448023e+02 0 0
16AP04_F19 4 75 70 45 -45 right 1 5.000000e-01 /Users/lab/Documents/magic3Definitivo/stim/9_noeffect.mov 628 04-May-2017 14:41:36 5.905783e+01 2.395983e+02 0 0
16AP04_F19 4 76 8 -45 -45 left 1 5.000000e-01 /Users/lab/Documents/magic3Definitivo/stim/1_noeffect.mov 491 04-May-2017 14:42:01 -2.727043e+00 -4.845440e+02 1 1
16AP04_F19 4 77 42 45 -45 right 1 5.000000e-01 /Users/lab/Documents/magic3Definitivo/stim/6_effect.mov 545 04-May-2017 14:42:03 -3.999501e+02 -1.918294e+02 1 0
16AP04_F19 4 78 28 -45 -45 left 1 5.000000e-01 /Users/lab/Documents/magic3Definitivo/stim/4_effect.mov 527 04-May-2017 14:42:06 1.135336e+02 -1.320942e+02 1 0
16AP04_F19 4 79 72 -45 -45 left 1 5.000000e-01 /Users/lab/Documents/magic3Definitivo/stim/9_noeffect.mov 512 04-May-2017 14:42:09 -4.676873e+02 -2.837093e+02 0 0
16AP04_F19 4 80 66 45 -45 right 1 5.000000e-01 /Users/lab/Documents/magic3Definitivo/stim/9_effect.mov 744 04-May-2017 14:42:12 -4.122657e+02 3.259584e+02 1 0
