subject_name subjectNumber iTrial unshuffled_trial targetOrientation flankersOrientation response correct onscreen_stim_duration magicShows rt date time_of_day deltaX deltaY surpriseClip isClipTrial
05MR06M32 2 1 15 -45 45 right 0 5.000000e-01 /Users/lab/Documents/magic3Definitivo/stim/2_noeffect.mov 1995 20-Apr-2017 18:38:30 3.754346e+02 3.298273e+02 0 1
05MR06M32 2 2 10 45 -45 right 1 5.000000e-01 /Users/lab/Documents/magic3Definitivo/stim/2_effect.mov 1846 20-Apr-2017 18:38:34 3.059957e+02 3.238927e+02 1 0
05MR06M32 2 3 67 -45 45 left 1 5.000000e-01 /Users/lab/Documents/magic3Definitivo/stim/9_effect.mov 2047 20-Apr-2017 18:38:38 -5.972951e+01 -7.892680e+01 1 0
05MR06M32 2 4 12 -45 -45 left 1 5.000000e-01 /Users/lab/Documents/magic3Definitivo/stim/2_effect.mov 1247 20-Apr-2017 18:39:04 -4.858376e+01 -2.488227e+01 1 1
05MR06M32 2 5 73 45 45 right 1 5.000000e-01 /Users/lab/Documents/magic3Definitivo/stim/10_effect.mov 1289 20-Apr-2017 18:39:08 3.480250e+02 -9.060497e+01 1 0
05MR06M32 2 6 5 45 45 left 0 5.000000e-01 /Users/lab/Documents/magic3Definitivo/stim/1_noeffect.mov 1363 20-Apr-2017 18:39:12 -4.725584e+02 -4.451062e+01 1 0
05MR06M32 2 7 53 45 45 left 0 5.000000e-01 /Users/lab/Documents/magic3Definitivo/stim/7_noeffect.mov 821 20-Apr-2017 18:39:15 3.497431e+02 2.205729e+00 0 0
05MR06M32 2 8 74 45 -45 right 1 5.000000e-01 /Users/lab/Documents/magic3Definitivo/stim/10_effect.mov 1391 20-Apr-2017 18:39:30 -1.940670e+02 -5.481615e+01 1 1
05MR06M32 2 9 46 45 -45 right 1 5.000000e-01 /Users/lab/Documents/magic3Definitivo/stim/6_noeffect.mov 578 20-Apr-2017 18:39:33 1.851432e+02 4.018078e+02 0 0
05MR06M32 2 10 2 45 -45 right 1 5.000000e-01 /Users/lab/Documents/magic3Definitivo/stim/1_effect.mov 894 20-Apr-2017 18:39:37 2.284800e+02 -2.291136e+02 1 0
05MR06M32 2 11 60 -45 -45 left 1 5.000000e-01 /Users/lab/Documents/magic3Definitivo/stim/8_effect.mov 810 20-Apr-2017 18:39:40 -5.495855e+01 1.644220e+02 1 0
05MR06M32 2 12 16 -45 -45 left 1 5.000000e-01 /Users/lab/Documents/magic3Definitivo/stim/2_noeffect.mov 976 20-Apr-2017 18:40:05 -2.180474e+02 4.759843e+02 0 1
05MR06M32 2 13 26 45 -45 left 0 5.000000e-01 /Users/lab/Documents/magic3Definitivo/stim/4_effect.mov 841 20-Apr-2017 18:40:08 2.708284e+02 -3.499880e+02 1 0
05MR06M32 2 14 62 45 -45 right 1 5.000000e-01 /Users/lab/Documents/magic3Definitivo/stim/8_noeffect.mov 656 20-Apr-2017 18:40:11 -3.956607e+02 3.080562e+02 0 0
05MR06M32 2 15 78 45 -45 right 1 5.000000e-01 /Users/lab/Documents/magic3Definitivo/stim/10_noeffect.mov 723 20-Apr-2017 18:40:14 -4.413142e+02 2.649817e+02 0 0
05MR06M32 2 16 41 45 45 left 0 5.000000e-01 /Users/lab/Documents/magic3Definitivo/stim/6_effect.mov 1294 20-Apr-2017 18:40:30 1.206287e+02 -3.134814e+02 1 1
05MR06M32 2 17 37 45 45 left 0 5.000000e-01 /Users/lab/Documents/magic3Definitivo/stim/5_noeffect.mov 730 20-Apr-2017 18:40:33 -2.547754e+02 -1.623006e+02 0 0
05MR06M32 2 18 32 -45 -45 right 0 5.000000e-01 /Users/lab/Documents/magic3Definitivo/stim/4_noeffect.mov 713 20-Apr-2017 18:40:36 4.723596e+02 -2.161331e+02 0 0
05MR06M32 2 19 36 -45 45 left 1 5.000000e-01 /Users/lab/Documents/magic3Definitivo/stim/5_effect.mov 579 20-Apr-2017 18:40:39 -1.160782e+01 -3.533463e+02 1 0
05MR06M32 2 20 61 45 45 left 0 5.000000e-01 /Users/lab/Documents/magic3Definitivo/stim/8_noeffect.mov 759 20-Apr-2017 18:41:00 1.245334e+02 4.562492e+02 0 1
05MR06M32 2 21 25 45 45 left 0 5.000000e-01 /Users/lab/Documents/magic3Definitivo/stim/4_effect.mov 526 20-Apr-2017 18:41:03 -1.661514e+02 -2.338038e+02 1 0
05MR06M32 2 22 38 45 -45 right 1 5.000000e-01 /Users/lab/Documents/magic3Definitivo/stim/5_noeffect.mov 558 20-Apr-2017 18:41:06 -2.863579e+02 -7.501450e+01 0 0
05MR06M32 2 23 9 45 45 left 0 5.000000e-01 /Users/lab/Documents/magic3Definitivo/stim/2_effect.mov 576 20-Apr-2017 18:41:09 -1.973534e+02 3.831265e+02 1 0
05MR06M32 2 24 20 -45 -45 left 1 5.000000e-01 /Users/lab/Documents/magic3Definitivo/stim/3_effect.mov 660 20-Apr-2017 18:41:27 4.580140e+02 5.667141e+01 1 1
05MR06M32 2 25 33 45 45 right 1 5.000000e-01 /Users/lab/Documents/magic3Definitivo/stim/5_effect.mov 443 20-Apr-2017 18:41:30 2.532133e+01 2.729211e+02 1 0
05MR06M32 2 26 42 45 -45 left 0 5.000000e-01 /Users/lab/Documents/magic3Definitivo/stim/6_effect.mov 640 20-Apr-2017 18:41:33 2.961604e+02 2.200369e+02 1 0
05MR06M32 2 27 30 45 -45 right 1 5.000000e-01 /Users/lab/Documents/magic3Definitivo/stim/4_noeffect.mov 723 20-Apr-2017 18:41:36 -4.362554e+02 -1.833446e+02 0 0
05MR06M32 2 28 31 -45 45 left 1 5.000000e-01 /Users/lab/Documents/magic3Definitivo/stim/4_noeffect.mov 743 20-Apr-2017 18:41:53 3.017371e+02 -1.802386e+01 0 1
05MR06M32 2 29 43 -45 45 left 1 5.000000e-01 /Users/lab/Documents/magic3Definitivo/stim/6_effect.mov 597 20-Apr-2017 18:41:56 -2.468142e+02 3.111150e+02 1 0
05MR06M32 2 30 48 -45 -45 left 1 5.000000e-01 /Users/lab/Documents/magic3Definitivo/stim/6_noeffect.mov 408 20-Apr-2017 18:41:59 -1.829054e+01 1.223542e+02 0 0
05MR06M32 2 31 4 -45 -45 left 1 5.000000e-01 /Users/lab/Documents/magic3Definitivo/stim/1_effect.mov 374 20-Apr-2017 18:42:01 -2.063727e+02 2.121769e+02 1 0
05MR06M32 2 32 50 45 -45 left 0 5.000000e-01 /Users/lab/Documents/magic3Definitivo/stim/7_effect.mov 975 20-Apr-2017 18:42:21 1.712746e+02 -7.053462e+01 1 1
05MR06M32 2 33 79 -45 45 left 1 5.000000e-01 /Users/lab/Documents/magic3Definitivo/stim/10_noeffect.mov 560 20-Apr-2017 18:42:24 3.365744e+02 1.735051e+02 0 0
05MR06M32 2 34 22 45 -45 right 1 5.000000e-01 /Users/lab/Documents/magic3Definitivo/stim/3_noeffect.mov 643 20-Apr-2017 18:42:27 2.157512e+02 2.184185e+02 0 0
05MR06M32 2 35 68 -45 -45 left 1 5.000000e-01 /Users/lab/Documents/magic3Definitivo/stim/9_effect.mov 453 20-Apr-2017 18:42:30 3.639546e+02 3.390359e+02 1 0
05MR06M32 2 36 45 45 45 left 0 5.000000e-01 /Users/lab/Documents/magic3Definitivo/stim/6_noeffect.mov 560 20-Apr-2017 18:42:45 -4.444526e+02 -2.068903e+02 0 1
05MR06M32 2 37 64 -45 -45 left 1 5.000000e-01 /Users/lab/Documents/magic3Definitivo/stim/8_noeffect.mov 573 20-Apr-2017 18:42:48 6.711763e+01 -2.801365e+02 0 0
05MR06M32 2 38 71 -45 45 left 1 5.000000e-01 /Users/lab/Documents/magic3Definitivo/stim/9_noeffect.mov 457 20-Apr-2017 18:42:50 3.311133e+02 2.833961e+02 0 0
05MR06M32 2 39 6 45 -45 right 1 5.000000e-01 /Users/lab/Documents/magic3Definitivo/stim/1_noeffect.mov 447 20-Apr-2017 18:42:53 -3.415692e+02 3.182170e+02 1 0
05MR06M32 2 40 69 45 45 left 0 5.000000e-01 /Users/lab/Documents/magic3Definitivo/stim/9_noeffect.mov 659 20-Apr-2017 18:43:15 -3.928873e+02 1.520863e+02 0 1
05MR06M32 2 41 3 -45 45 left 1 5.000000e-01 /Users/lab/Documents/magic3Definitivo/stim/1_effect.mov 512 20-Apr-2017 18:43:18 1.162071e+02 -3.036622e+02 1 0
05MR06M32 2 42 44 -45 -45 left 1 5.000000e-01 /Users/lab/Documents/magic3Definitivo/stim/6_effect.mov 446 20-Apr-2017 18:43:21 4.125093e+02 1.515000e+02 1 0
05MR06M32 2 43 80 -45 -45 left 1 5.000000e-01 /Users/lab/Documents/magic3Definitivo/stim/10_noeffect.mov 694 20-Apr-2017 18:43:24 3.048796e+02 3.849588e+01 0 0
05MR06M32 2 44 70 45 -45 left 0 5.000000e-01 /Users/lab/Documents/magic3Definitivo/stim/9_noeffect.mov 744 20-Apr-2017 18:43:46 -3.887299e+02 -3.300121e+02 0 1
05MR06M32 2 45 66 45 -45 right 1 5.000000e-01 /Users/lab/Documents/magic3Definitivo/stim/9_effect.mov 626 20-Apr-2017 18:43:49 -8.270455e+01 -4.272941e+02 1 0
05MR06M32 2 46 19 -45 45 left 1 5.000000e-01 /Users/lab/Documents/magic3Definitivo/stim/3_effect.mov 392 20-Apr-2017 18:43:51 2.167069e+02 1.403457e+02 1 0
05MR06M32 2 47 40 -45 -45 left 1 5.000000e-01 /Users/lab/Documents/magic3Definitivo/stim/5_noeffect.mov 422 20-Apr-2017 18:43:54 4.411069e+02 -4.486550e+01 0 0
05MR06M32 2 48 72 -45 -45 left 1 5.000000e-01 /Users/lab/Documents/magic3Definitivo/stim/9_noeffect.mov 1042 20-Apr-2017 18:44:16 4.376560e+02 -4.735473e+02 0 1
05MR06M32 2 49 27 -45 45 left 1 5.000000e-01 /Users/lab/Documents/magic3Definitivo/stim/4_effect.mov 592 20-Apr-2017 18:44:19 -4.043167e+02 1.366446e+02 1 0
05MR06M32 2 50 56 -45 -45 left 1 5.000000e-01 /Users/lab/Documents/magic3Definitivo/stim/7_noeffect.mov 973 20-Apr-2017 18:44:22 3.520415e+02 -1.322281e+02 0 0
05MR06M32 2 51 47 -45 45 left 1 5.000000e-01 /Users/lab/Documents/magic3Definitivo/stim/6_noeffect.mov 455 20-Apr-2017 18:44:25 -4.156821e+02 -2.076697e+02 0 0
05MR06M32 2 52 76 -45 -45 left 1 5.000000e-01 /Users/lab/Documents/magic3Definitivo/stim/10_effect.mov 908 20-Apr-2017 18:44:40 -4.199892e+02 1.529033e+02 1 1
05MR06M32 2 53 58 45 -45 left 0 5.000000e-01 /Users/lab/Documents/magic3Definitivo/stim/8_effect.mov 595 20-Apr-2017 18:44:43 -2.907634e+02 -3.084141e+02 1 0
05MR06M32 2 54 13 45 45 left 0 5.000000e-01 /Users/lab/Documents/magic3Definitivo/stim/2_noeffect.mov 481 20-Apr-2017 18:44:46 1.981046e+02 -1.795322e+02 0 0
05MR06M32 2 55 34 45 -45 left 0 5.000000e-01 /Users/lab/Documents/magic3Definitivo/stim/5_effect.mov 430 20-Apr-2017 18:44:49 1.240670e+02 -4.583095e+02 1 0
05MR06M32 2 56 77 45 45 left 0 5.000000e-01 /Users/lab/Documents/magic3Definitivo/stim/10_noeffect.mov 860 20-Apr-2017 18:45:03 3.034859e+02 -7.086862e+01 0 1
05MR06M32 2 57 8 -45 -45 left 1 5.000000e-01 /Users/lab/Documents/magic3Definitivo/stim/1_noeffect.mov 526 20-Apr-2017 18:45:06 -2.050597e+02 -3.391693e+02 1 0
05MR06M32 2 58 1 45 45 right 1 5.000000e-01 /Users/lab/Documents/magic3Definitivo/stim/1_effect.mov 487 20-Apr-2017 18:45:09 7.333406e+01 -1.283457e+02 1 0
05MR06M32 2 59 52 -45 -45 left 1 5.000000e-01 /Users/lab/Documents/magic3Definitivo/stim/7_effect.mov 491 20-Apr-2017 18:45:12 -4.079999e+02 -1.758087e+02 1 0
05MR06M32 2 60 14 45 -45 right 1 5.000000e-01 /Users/lab/Documents/magic3Definitivo/stim/2_noeffect.mov 658 20-Apr-2017 18:45:36 2.260369e+02 -1.198057e+02 0 1
05MR06M32 2 61 55 -45 45 left 1 5.000000e-01 /Users/lab/Documents/magic3Definitivo/stim/7_noeffect.mov 523 20-Apr-2017 18:45:39 2.276966e+02 -3.045020e+01 0 0
05MR06M32 2 62 36 -45 -45 left 1 5.000000e-01 /Users/lab/Documents/magic3Definitivo/stim/5_effect.mov 592 20-Apr-2017 18:45:42 4.844216e+02 -3.089088e+02 1 0
05MR06M32 2 63 17 45 45 left 0 5.000000e-01 /Users/lab/Documents/magic3Definitivo/stim/3_effect.mov 538 20-Apr-2017 18:45:45 1.118636e+02 2.123568e+02 1 0
05MR06M32 2 64 51 -45 45 left 1 5.000000e-01 /Users/lab/Documents/magic3Definitivo/stim/7_effect.mov 693 20-Apr-2017 18:46:04 2.714174e+02 -6.291820e+01 1 1
05MR06M32 2 65 54 45 -45 left 0 5.000000e-01 /Users/lab/Documents/magic3Definitivo/stim/7_noeffect.mov 678 20-Apr-2017 18:46:07 1.778994e+02 -1.661311e+01 0 0
05MR06M32 2 66 59 -45 45 left 1 5.000000e-01 /Users/lab/Documents/magic3Definitivo/stim/8_effect.mov 578 20-Apr-2017 18:46:10 -2.960259e+02 -3.601125e+02 1 0
05MR06M32 2 67 11 -45 45 right 0 5.000000e-01 /Users/lab/Documents/magic3Definitivo/stim/2_effect.mov 366 20-Apr-2017 18:46:13 -1.866304e+02 -5.332490e+01 1 0
05MR06M32 2 68 39 -45 45 left 1 5.000000e-01 /Users/lab/Documents/magic3Definitivo/stim/5_noeffect.mov 658 20-Apr-2017 18:46:30 -2.158573e+01 -1.140733e+02 0 1
05MR06M32 2 69 75 -45 45 left 1 5.000000e-01 /Users/lab/Documents/magic3Definitivo/stim/10_effect.mov 626 20-Apr-2017 18:46:33 -2.496866e+02 1.649257e+02 1 0
05MR06M32 2 70 21 45 45 left 0 5.000000e-01 /Users/lab/Documents/magic3Definitivo/stim/3_noeffect.mov 1025 20-Apr-2017 18:46:36 -9.404202e+01 -4.146686e+02 0 0
05MR06M32 2 71 49 45 45 left 0 5.000000e-01 /Users/lab/Documents/magic3Definitivo/stim/7_effect.mov 498 20-Apr-2017 18:46:39 5.119464e+01 -5.620975e+01 1 0
05MR06M32 2 72 65 45 45 left 0 5.000000e-01 /Users/lab/Documents/magic3Definitivo/stim/9_effect.mov 794 20-Apr-2017 18:47:01 4.913212e+02 -3.916195e+02 1 1
05MR06M32 2 73 29 45 45 right 1 5.000000e-01 /Users/lab/Documents/magic3Definitivo/stim/4_noeffect.mov 739 20-Apr-2017 18:47:04 -4.699794e+02 -2.095143e+02 0 0
05MR06M32 2 74 18 45 -45 left 0 5.000000e-01 /Users/lab/Documents/magic3Definitivo/stim/3_effect.mov 364 20-Apr-2017 18:47:07 3.716038e+02 3.082054e+02 1 0
05MR06M32 2 75 28 -45 -45 left 1 5.000000e-01 /Users/lab/Documents/magic3Definitivo/stim/4_effect.mov 376 20-Apr-2017 18:47:10 -3.710739e+02 -3.878493e+02 1 0
05MR06M32 2 76 24 -45 -45 left 1 5.000000e-01 /Users/lab/Documents/magic3Definitivo/stim/3_noeffect.mov 610 20-Apr-2017 18:47:28 -3.936753e+02 3.283859e+01 0 1
05MR06M32 2 77 7 -45 45 left 1 5.000000e-01 /Users/lab/Documents/magic3Definitivo/stim/1_noeffect.mov 494 20-Apr-2017 18:47:31 -4.413668e+02 2.310924e+02 1 0
05MR06M32 2 78 57 45 45 NORESP 0 5.000000e-01 /Users/lab/Documents/magic3Definitivo/stim/8_effect.mov 3011 20-Apr-2017 18:47:36 -5.182614e+01 -7.998590e+01 1 0
05MR06M32 2 79 23 -45 45 left 1 5.000000e-01 /Users/lab/Documents/magic3Definitivo/stim/3_noeffect.mov 527 20-Apr-2017 18:47:39 3.186099e+02 -3.287526e+02 0 0
05MR06M32 2 80 63 -45 45 left 1 5.000000e-01 /Users/lab/Documents/magic3Definitivo/stim/8_noeffect.mov 628 20-Apr-2017 18:47:42 2.929912e+02 -1.098809e+02 0 0
