subject_name subjectNumber iTrial unshuffled_trial targetOrientation flankersOrientation response correct onscreen_stim_duration magicShows rt date time_of_day deltaX deltaY surpriseClip isClipTrial
66MN1_M20 3 1 4 -45 -45 left 1 5.000000e-01 /Users/lab/Documents/magic3Definitivo/stim/1_effect.mov 591 04-May-2017 17:57:12 -2.024119e+02 7.471788e+00 1 1
66MN1_M20 3 2 66 45 -45 right 1 5.000000e-01 /Users/lab/Documents/magic3Definitivo/stim/9_effect.mov 593 04-May-2017 17:57:15 -4.050180e+02 -3.957247e+02 1 0
66MN1_M20 3 3 30 45 -45 right 1 5.000000e-01 /Users/lab/Documents/magic3Definitivo/stim/4_noeffect.mov 560 04-May-2017 17:57:18 5.047911e+01 -2.535306e+02 0 0
66MN1_M20 3 4 62 45 -45 right 1 5.000000e-01 /Users/lab/Documents/magic3Definitivo/stim/8_noeffect.mov 611 04-May-2017 17:57:39 -1.979392e+02 -3.696817e+02 0 1
66MN1_M20 3 5 67 -45 45 left 1 5.000000e-01 /Users/lab/Documents/magic3Definitivo/stim/9_effect.mov 678 04-May-2017 17:57:42 6.783036e+00 4.666371e+02 1 0
66MN1_M20 3 6 22 45 -45 right 1 5.000000e-01 /Users/lab/Documents/magic3Definitivo/stim/3_noeffect.mov 544 04-May-2017 17:57:45 -1.665952e+02 -1.162942e+02 0 0
66MN1_M20 3 7 53 45 45 right 1 5.000000e-01 /Users/lab/Documents/magic3Definitivo/stim/7_noeffect.mov 529 04-May-2017 17:57:48 -1.772471e+02 4.417346e+02 0 0
66MN1_M20 3 8 47 -45 45 left 1 5.000000e-01 /Users/lab/Documents/magic3Definitivo/stim/6_noeffect.mov 594 04-May-2017 17:58:03 3.092116e+01 -1.324096e+02 0 1
66MN1_M20 3 9 80 -45 -45 left 1 5.000000e-01 /Users/lab/Documents/magic3Definitivo/stim/10_noeffect.mov 627 04-May-2017 17:58:06 1.214473e+02 -4.167087e+01 0 0
66MN1_M20 3 10 8 -45 -45 left 1 5.000000e-01 /Users/lab/Documents/magic3Definitivo/stim/1_noeffect.mov 779 04-May-2017 17:58:09 4.919435e+02 2.407665e+02 1 0
66MN1_M20 3 11 39 -45 45 left 1 5.000000e-01 /Users/lab/Documents/magic3Definitivo/stim/5_noeffect.mov 561 04-May-2017 17:58:12 3.528933e+02 -3.614654e+02 0 0
66MN1_M20 3 12 61 45 45 right 1 5.000000e-01 /Users/lab/Documents/magic3Definitivo/stim/8_noeffect.mov 727 04-May-2017 17:58:33 -4.599022e+02 4.741432e+02 0 1
66MN1_M20 3 13 12 -45 -45 left 1 5.000000e-01 /Users/lab/Documents/magic3Definitivo/stim/2_effect.mov 594 04-May-2017 17:58:36 2.311301e+02 2.693183e+02 1 0
66MN1_M20 3 14 60 -45 -45 left 1 5.000000e-01 /Users/lab/Documents/magic3Definitivo/stim/8_effect.mov 578 04-May-2017 17:58:38 3.705104e+02 2.269868e+02 1 0
66MN1_M20 3 15 21 45 45 right 1 5.000000e-01 /Users/lab/Documents/magic3Definitivo/stim/3_noeffect.mov 628 04-May-2017 17:58:41 -4.601055e+02 -2.306209e+02 0 0
66MN1_M20 3 16 33 45 45 right 1 5.000000e-01 /Users/lab/Documents/magic3Definitivo/stim/5_effect.mov 728 04-May-2017 17:58:58 1.934961e+02 -4.254419e+02 1 1
66MN1_M20 3 17 9 45 45 right 1 5.000000e-01 /Users/lab/Documents/magic3Definitivo/stim/2_effect.mov 544 04-May-2017 17:59:01 3.545244e+02 1.108586e+02 1 0
66MN1_M20 3 18 29 45 45 right 1 5.000000e-01 /Users/lab/Documents/magic3Definitivo/stim/4_noeffect.mov 556 04-May-2017 17:59:04 3.285751e+02 2.833015e+02 0 0
66MN1_M20 3 19 43 -45 45 left 1 5.000000e-01 /Users/lab/Documents/magic3Definitivo/stim/6_effect.mov 511 04-May-2017 17:59:07 4.055404e+02 -2.312866e+02 1 0
66MN1_M20 3 20 26 45 -45 right 1 5.000000e-01 /Users/lab/Documents/magic3Definitivo/stim/4_effect.mov 709 04-May-2017 17:59:24 -3.990764e+02 4.141440e+02 1 1
66MN1_M20 3 21 28 -45 -45 left 1 5.000000e-01 /Users/lab/Documents/magic3Definitivo/stim/4_effect.mov 455 04-May-2017 17:59:27 -2.038091e+02 2.102765e+02 1 0
66MN1_M20 3 22 27 -45 45 left 1 5.000000e-01 /Users/lab/Documents/magic3Definitivo/stim/4_effect.mov 469 04-May-2017 17:59:29 -2.389299e+02 -1.522217e+02 1 0
66MN1_M20 3 23 76 -45 -45 left 1 5.000000e-01 /Users/lab/Documents/magic3Definitivo/stim/10_effect.mov 511 04-May-2017 17:59:32 -1.737020e+02 9.541183e+01 1 0
66MN1_M20 3 24 15 -45 45 left 1 5.000000e-01 /Users/lab/Documents/magic3Definitivo/stim/2_noeffect.mov 628 04-May-2017 17:59:57 -3.892180e+02 4.670126e+02 0 1
66MN1_M20 3 25 13 45 45 right 1 5.000000e-01 /Users/lab/Documents/magic3Definitivo/stim/2_noeffect.mov 762 04-May-2017 18:00:00 2.211885e+02 -1.654742e+02 0 0
66MN1_M20 3 26 51 -45 45 left 1 5.000000e-01 /Users/lab/Documents/magic3Definitivo/stim/7_effect.mov 579 04-May-2017 18:00:03 -2.303242e+02 1.991007e+02 1 0
66MN1_M20 3 27 1 45 45 right 1 5.000000e-01 /Users/lab/Documents/magic3Definitivo/stim/1_effect.mov 612 04-May-2017 18:00:06 -1.193074e+02 2.799432e+01 1 0
66MN1_M20 3 28 64 -45 -45 left 1 5.000000e-01 /Users/lab/Documents/magic3Definitivo/stim/8_noeffect.mov 543 04-May-2017 18:00:27 -1.792699e+02 -3.382977e+02 0 1
66MN1_M20 3 29 54 45 -45 right 1 5.000000e-01 /Users/lab/Documents/magic3Definitivo/stim/7_noeffect.mov 561 04-May-2017 18:00:30 -3.690278e+02 -3.327526e+02 0 0
66MN1_M20 3 30 57 45 45 right 1 5.000000e-01 /Users/lab/Documents/magic3Definitivo/stim/8_effect.mov 627 04-May-2017 18:00:32 1.751634e+02 -4.271693e+02 1 0
66MN1_M20 3 31 68 -45 -45 left 1 5.000000e-01 /Users/lab/Documents/magic3Definitivo/stim/9_effect.mov 590 04-May-2017 18:00:35 3.626085e+02 4.704973e+02 1 0
66MN1_M20 3 32 32 -45 -45 left 1 5.000000e-01 /Users/lab/Documents/magic3Definitivo/stim/4_noeffect.mov 593 04-May-2017 18:00:52 3.660359e+02 -2.903064e+02 0 1
66MN1_M20 3 33 7 -45 45 left 1 5.000000e-01 /Users/lab/Documents/magic3Definitivo/stim/1_noeffect.mov 595 04-May-2017 18:00:55 -4.358329e+02 1.364261e+01 1 0
66MN1_M20 3 34 52 -45 -45 left 1 5.000000e-01 /Users/lab/Documents/magic3Definitivo/stim/7_effect.mov 646 04-May-2017 18:00:58 2.699755e+02 9.918214e+01 1 0
66MN1_M20 3 35 48 -45 -45 left 1 5.000000e-01 /Users/lab/Documents/magic3Definitivo/stim/6_noeffect.mov 545 04-May-2017 18:01:01 1.598361e+02 3.466678e+02 0 0
66MN1_M20 3 36 41 45 45 right 1 5.000000e-01 /Users/lab/Documents/magic3Definitivo/stim/6_effect.mov 793 04-May-2017 18:01:16 4.180077e+02 3.218377e+02 1 1
66MN1_M20 3 37 20 -45 -45 left 1 5.000000e-01 /Users/lab/Documents/magic3Definitivo/stim/3_effect.mov 656 04-May-2017 18:01:19 4.345681e+02 -2.403013e+01 1 0
66MN1_M20 3 38 2 45 -45 right 1 5.000000e-01 /Users/lab/Documents/magic3Definitivo/stim/1_effect.mov 403 04-May-2017 18:01:22 3.614119e+01 -1.359222e+02 1 0
66MN1_M20 3 39 17 45 45 right 1 5.000000e-01 /Users/lab/Documents/magic3Definitivo/stim/3_effect.mov 595 04-May-2017 18:01:25 4.566249e+02 -1.622945e+02 1 0
66MN1_M20 3 40 56 -45 -45 left 1 5.000000e-01 /Users/lab/Documents/magic3Definitivo/stim/7_noeffect.mov 561 04-May-2017 18:01:44 2.077524e+02 -1.322119e+02 0 1
66MN1_M20 3 41 24 -45 -45 left 1 5.000000e-01 /Users/lab/Documents/magic3Definitivo/stim/3_noeffect.mov 579 04-May-2017 18:01:47 2.426066e+02 -1.131999e+02 0 0
66MN1_M20 3 42 11 -45 45 left 1 5.000000e-01 /Users/lab/Documents/magic3Definitivo/stim/2_effect.mov 556 04-May-2017 18:01:50 -7.925301e+01 3.720588e+02 1 0
66MN1_M20 3 43 71 -45 45 left 1 5.000000e-01 /Users/lab/Documents/magic3Definitivo/stim/9_noeffect.mov 545 04-May-2017 18:01:52 3.465786e+02 -1.935315e+02 0 0
66MN1_M20 3 44 25 45 45 right 1 5.000000e-01 /Users/lab/Documents/magic3Definitivo/stim/4_effect.mov 1160 04-May-2017 18:02:10 4.639792e+02 1.806672e+02 1 1
66MN1_M20 3 45 72 -45 -45 left 1 5.000000e-01 /Users/lab/Documents/magic3Definitivo/stim/9_noeffect.mov 528 04-May-2017 18:02:13 -3.642079e+02 9.653351e+01 0 0
66MN1_M20 3 46 46 45 -45 right 1 5.000000e-01 /Users/lab/Documents/magic3Definitivo/stim/6_noeffect.mov 593 04-May-2017 18:02:16 3.120331e+02 -1.204580e+02 0 0
66MN1_M20 3 47 78 45 -45 right 1 5.000000e-01 /Users/lab/Documents/magic3Definitivo/stim/10_noeffect.mov 527 04-May-2017 18:02:19 2.933192e+02 2.485421e+02 0 0
66MN1_M20 3 48 77 45 45 right 1 5.000000e-01 /Users/lab/Documents/magic3Definitivo/stim/10_noeffect.mov 810 04-May-2017 18:02:33 3.319296e+02 2.727220e+02 0 1
66MN1_M20 3 49 23 -45 45 left 1 5.000000e-01 /Users/lab/Documents/magic3Definitivo/stim/3_noeffect.mov 432 04-May-2017 18:02:35 4.880642e+01 3.775143e+02 0 0
66MN1_M20 3 50 42 45 -45 right 1 5.000000e-01 /Users/lab/Documents/magic3Definitivo/stim/6_effect.mov 679 04-May-2017 18:02:38 -4.927765e+02 3.061424e+01 1 0
66MN1_M20 3 51 59 -45 45 left 1 5.000000e-01 /Users/lab/Documents/magic3Definitivo/stim/8_effect.mov 794 04-May-2017 18:02:42 4.434775e+02 3.029063e+02 1 0
66MN1_M20 3 52 74 45 -45 right 1 5.000000e-01 /Users/lab/Documents/magic3Definitivo/stim/10_effect.mov 709 04-May-2017 18:02:56 -3.476746e+02 1.217387e+02 1 1
66MN1_M20 3 53 70 45 -45 right 1 5.000000e-01 /Users/lab/Documents/magic3Definitivo/stim/9_noeffect.mov 540 04-May-2017 18:02:59 -1.639614e+02 7.373514e+01 0 0
66MN1_M20 3 54 34 45 -45 right 1 5.000000e-01 /Users/lab/Documents/magic3Definitivo/stim/5_effect.mov 594 04-May-2017 18:03:02 -2.991518e+02 -2.542825e+02 1 0
66MN1_M20 3 55 10 45 -45 right 1 5.000000e-01 /Users/lab/Documents/magic3Definitivo/stim/2_effect.mov 494 04-May-2017 18:03:05 -3.549798e+01 -1.799189e+02 1 0
66MN1_M20 3 56 36 -45 45 left 1 5.000000e-01 /Users/lab/Documents/magic3Definitivo/stim/5_effect.mov 611 04-May-2017 18:03:21 4.524511e+02 -4.802771e+02 1 1
66MN1_M20 3 57 5 45 45 right 1 5.000000e-01 /Users/lab/Documents/magic3Definitivo/stim/1_noeffect.mov 1071 04-May-2017 18:03:25 -3.342259e+02 -3.163803e+02 1 0
66MN1_M20 3 58 18 45 -45 right 1 5.000000e-01 /Users/lab/Documents/magic3Definitivo/stim/3_effect.mov 624 04-May-2017 18:03:28 1.152454e+02 -1.222211e+02 1 0
66MN1_M20 3 59 37 45 45 right 1 5.000000e-01 /Users/lab/Documents/magic3Definitivo/stim/5_noeffect.mov 628 04-May-2017 18:03:31 1.341957e+02 3.785900e+02 0 0
66MN1_M20 3 60 14 45 -45 right 1 5.000000e-01 /Users/lab/Documents/magic3Definitivo/stim/2_noeffect.mov 677 04-May-2017 18:03:55 1.279851e+02 -1.963189e+02 0 1
66MN1_M20 3 61 49 45 45 right 1 5.000000e-01 /Users/lab/Documents/magic3Definitivo/stim/7_effect.mov 473 04-May-2017 18:03:58 3.498706e+02 4.052907e+01 1 0
66MN1_M20 3 62 69 45 45 right 1 5.000000e-01 /Users/lab/Documents/magic3Definitivo/stim/9_noeffect.mov 678 04-May-2017 18:04:01 4.638982e+02 -2.736359e+02 0 0
66MN1_M20 3 63 73 45 45 right 1 5.000000e-01 /Users/lab/Documents/magic3Definitivo/stim/10_effect.mov 529 04-May-2017 18:04:04 -1.053329e+01 -3.504232e+02 1 0
66MN1_M20 3 64 16 -45 -45 left 1 5.000000e-01 /Users/lab/Documents/magic3Definitivo/stim/2_noeffect.mov 611 04-May-2017 18:04:29 1.391826e+02 4.256864e+02 0 1
66MN1_M20 3 65 36 -45 -45 left 1 5.000000e-01 /Users/lab/Documents/magic3Definitivo/stim/5_effect.mov 464 04-May-2017 18:04:31 2.025603e+02 3.093128e+02 1 0
66MN1_M20 3 66 31 -45 45 left 1 5.000000e-01 /Users/lab/Documents/magic3Definitivo/stim/4_noeffect.mov 560 04-May-2017 18:04:34 -7.111637e+01 1.609254e+02 0 0
66MN1_M20 3 67 63 -45 45 left 1 5.000000e-01 /Users/lab/Documents/magic3Definitivo/stim/8_noeffect.mov 482 04-May-2017 18:04:37 -4.539128e+01 -2.069504e+01 0 0
66MN1_M20 3 68 45 45 45 right 1 5.000000e-01 /Users/lab/Documents/magic3Definitivo/stim/6_noeffect.mov 593 04-May-2017 18:04:52 -2.360627e+02 1.614351e+02 0 1
66MN1_M20 3 69 38 45 -45 right 1 5.000000e-01 /Users/lab/Documents/magic3Definitivo/stim/5_noeffect.mov 560 04-May-2017 18:04:55 -3.440364e+02 1.093122e+02 0 0
66MN1_M20 3 70 6 45 -45 right 1 5.000000e-01 /Users/lab/Documents/magic3Definitivo/stim/1_noeffect.mov 594 04-May-2017 18:04:58 4.635145e+02 3.430585e+02 1 0
66MN1_M20 3 71 58 45 -45 right 1 5.000000e-01 /Users/lab/Documents/magic3Definitivo/stim/8_effect.mov 488 04-May-2017 18:05:00 1.226228e+02 -3.982922e+02 1 0
66MN1_M20 3 72 79 -45 45 left 1 5.000000e-01 /Users/lab/Documents/magic3Definitivo/stim/10_noeffect.mov 659 04-May-2017 18:05:14 3.800034e+01 -2.087576e+02 0 1
66MN1_M20 3 73 65 45 45 right 1 5.000000e-01 /Users/lab/Documents/magic3Definitivo/stim/9_effect.mov 473 04-May-2017 18:05:17 -1.132621e+02 -4.093797e+01 1 0
66MN1_M20 3 74 40 -45 -45 left 1 5.000000e-01 /Users/lab/Documents/magic3Definitivo/stim/5_noeffect.mov 578 04-May-2017 18:05:20 3.523193e+02 2.995235e+02 0 0
66MN1_M20 3 75 3 -45 45 left 1 5.000000e-01 /Users/lab/Documents/magic3Definitivo/stim/1_effect.mov 607 04-May-2017 18:05:23 2.708488e+02 -3.860941e+02 1 0
66MN1_M20 3 76 44 -45 -45 left 1 5.000000e-01 /Users/lab/Documents/magic3Definitivo/stim/6_effect.mov 728 04-May-2017 18:05:38 4.099552e+02 -4.231021e+02 1 1
66MN1_M20 3 77 50 45 -45 right 1 5.000000e-01 /Users/lab/Documents/magic3Definitivo/stim/7_effect.mov 511 04-May-2017 18:05:41 -3.238234e+01 -3.452324e+02 1 0
66MN1_M20 3 78 55 -45 45 left 1 5.000000e-01 /Users/lab/Documents/magic3Definitivo/stim/7_noeffect.mov 439 04-May-2017 18:05:44 -4.412715e+02 -2.410583e+02 0 0
66MN1_M20 3 79 19 -45 45 left 1 5.000000e-01 /Users/lab/Documents/magic3Definitivo/stim/3_effect.mov 481 04-May-2017 18:05:46 5.423654e+01 -3.403944e+02 1 0
66MN1_M20 3 80 75 -45 45 left 1 5.000000e-01 /Users/lab/Documents/magic3Definitivo/stim/10_effect.mov 523 04-May-2017 18:05:49 2.400269e+02 -1.582256e+02 1 0
