subject_name subjectNumber iTrial unshuffled_trial targetOrientation flankersOrientation response correct onscreen_stim_duration magicShows rt date time_of_day deltaX deltaY surpriseClip isClipTrial
27MT31_F22 1 1 54 45 -45 right 1 5.000000e-01 /Users/lab/Documents/magic3Definitivo/stim/7_noeffect.mov 777 28-Apr-2017 17:08:19 1.508574e+01 -2.181624e+02 0 1
27MT31_F22 1 2 56 -45 -45 left 1 5.000000e-01 /Users/lab/Documents/magic3Definitivo/stim/7_noeffect.mov 489 28-Apr-2017 17:08:22 4.205048e+02 -3.699883e+02 0 0
27MT31_F22 1 3 52 -45 -45 left 1 5.000000e-01 /Users/lab/Documents/magic3Definitivo/stim/7_effect.mov 527 28-Apr-2017 17:08:25 1.025462e+01 -1.910675e+02 1 0
27MT31_F22 1 4 31 -45 45 left 1 5.000000e-01 /Users/lab/Documents/magic3Definitivo/stim/4_noeffect.mov 529 28-Apr-2017 17:08:42 3.887820e+01 2.461194e+01 0 1
27MT31_F22 1 5 49 45 45 right 1 5.000000e-01 /Users/lab/Documents/magic3Definitivo/stim/7_effect.mov 379 28-Apr-2017 17:08:45 2.025059e+02 2.360822e+02 1 0
27MT31_F22 1 6 78 45 -45 right 1 5.000000e-01 /Users/lab/Documents/magic3Definitivo/stim/10_noeffect.mov 528 28-Apr-2017 17:08:48 -4.177578e+02 9.548152e+01 0 0
27MT31_F22 1 7 70 45 -45 right 1 5.000000e-01 /Users/lab/Documents/magic3Definitivo/stim/9_noeffect.mov 728 28-Apr-2017 17:08:51 -4.591813e+02 1.879507e+02 0 0
27MT31_F22 1 8 41 45 45 right 1 5.000000e-01 /Users/lab/Documents/magic3Definitivo/stim/6_effect.mov 796 28-Apr-2017 17:09:06 5.538768e+01 -1.750934e+02 1 1
27MT31_F22 1 9 1 45 45 right 1 5.000000e-01 /Users/lab/Documents/magic3Definitivo/stim/1_effect.mov 348 28-Apr-2017 17:09:09 -2.004249e+02 3.318279e+02 1 0
27MT31_F22 1 10 59 -45 45 right 0 5.000000e-01 /Users/lab/Documents/magic3Definitivo/stim/8_effect.mov 380 28-Apr-2017 17:09:11 3.545764e+02 -3.487639e+01 1 0
27MT31_F22 1 11 13 45 45 right 1 5.000000e-01 /Users/lab/Documents/magic3Definitivo/stim/2_noeffect.mov 423 28-Apr-2017 17:09:14 -2.520640e+02 -1.079850e+02 0 0
27MT31_F22 1 12 16 -45 -45 left 1 5.000000e-01 /Users/lab/Documents/magic3Definitivo/stim/2_noeffect.mov 677 28-Apr-2017 17:09:39 4.244945e+02 -4.825516e+02 0 1
27MT31_F22 1 13 5 45 45 right 1 5.000000e-01 /Users/lab/Documents/magic3Definitivo/stim/1_noeffect.mov 478 28-Apr-2017 17:09:42 2.229113e+02 -3.483836e+02 1 0
27MT31_F22 1 14 38 45 -45 right 1 5.000000e-01 /Users/lab/Documents/magic3Definitivo/stim/5_noeffect.mov 545 28-Apr-2017 17:09:44 -5.543432e-01 3.237107e+02 0 0
27MT31_F22 1 15 32 -45 -45 left 1 5.000000e-01 /Users/lab/Documents/magic3Definitivo/stim/4_noeffect.mov 459 28-Apr-2017 17:09:47 1.425034e+02 -2.962879e+02 0 0
27MT31_F22 1 16 28 -45 -45 left 1 5.000000e-01 /Users/lab/Documents/magic3Definitivo/stim/4_effect.mov 776 28-Apr-2017 17:10:04 4.462698e+02 2.647992e+02 1 1
27MT31_F22 1 17 11 -45 45 left 1 5.000000e-01 /Users/lab/Documents/magic3Definitivo/stim/2_effect.mov 546 28-Apr-2017 17:10:07 5.885943e+01 2.619920e+02 1 0
27MT31_F22 1 18 48 -45 -45 left 1 5.000000e-01 /Users/lab/Documents/magic3Definitivo/stim/6_noeffect.mov 464 28-Apr-2017 17:10:10 7.311567e+01 -2.862137e+02 0 0
27MT31_F22 1 19 12 -45 -45 left 1 5.000000e-01 /Users/lab/Documents/magic3Definitivo/stim/2_effect.mov 406 28-Apr-2017 17:10:13 -2.016476e+01 -3.949157e+02 1 0
27MT31_F22 1 20 2 45 -45 right 1 5.000000e-01 /Users/lab/Documents/magic3Definitivo/stim/1_effect.mov 812 28-Apr-2017 17:10:38 2.945319e+02 8.193622e+01 1 1
27MT31_F22 1 21 76 -45 -45 left 1 5.000000e-01 /Users/lab/Documents/magic3Definitivo/stim/10_effect.mov 511 28-Apr-2017 17:10:41 -4.176736e+02 3.757447e+02 1 0
27MT31_F22 1 22 75 -45 45 left 1 5.000000e-01 /Users/lab/Documents/magic3Definitivo/stim/10_effect.mov 538 28-Apr-2017 17:10:44 -2.588577e+02 -6.527979e+01 1 0
27MT31_F22 1 23 10 45 -45 right 1 5.000000e-01 /Users/lab/Documents/magic3Definitivo/stim/2_effect.mov 528 28-Apr-2017 17:10:46 1.485691e+02 3.972181e+02 1 0
27MT31_F22 1 24 29 45 45 right 1 5.000000e-01 /Users/lab/Documents/magic3Definitivo/stim/4_noeffect.mov 611 28-Apr-2017 17:11:03 -1.767319e+02 -4.953767e+02 0 1
27MT31_F22 1 25 80 -45 -45 left 1 5.000000e-01 /Users/lab/Documents/magic3Definitivo/stim/10_noeffect.mov 397 28-Apr-2017 17:11:06 -4.557798e+02 -1.237306e+02 0 0
27MT31_F22 1 26 20 -45 -45 left 1 5.000000e-01 /Users/lab/Documents/magic3Definitivo/stim/3_effect.mov 395 28-Apr-2017 17:11:09 8.530142e+01 9.764162e+01 1 0
27MT31_F22 1 27 61 45 45 right 1 5.000000e-01 /Users/lab/Documents/magic3Definitivo/stim/8_noeffect.mov 444 28-Apr-2017 17:11:12 3.305651e+02 -3.751729e+02 0 0
27MT31_F22 1 28 6 45 -45 right 1 5.000000e-01 /Users/lab/Documents/magic3Definitivo/stim/1_noeffect.mov 644 28-Apr-2017 17:11:37 -1.267641e+02 -2.472328e+02 1 1
27MT31_F22 1 29 26 45 -45 right 1 5.000000e-01 /Users/lab/Documents/magic3Definitivo/stim/4_effect.mov 413 28-Apr-2017 17:11:39 1.419600e+01 -2.093883e+02 1 0
27MT31_F22 1 30 22 45 -45 right 1 5.000000e-01 /Users/lab/Documents/magic3Definitivo/stim/3_noeffect.mov 497 28-Apr-2017 17:11:42 -9.230383e+01 -2.139995e+02 0 0
27MT31_F22 1 31 73 45 45 right 1 5.000000e-01 /Users/lab/Documents/magic3Definitivo/stim/10_effect.mov 455 28-Apr-2017 17:11:45 -1.780867e+02 1.388112e+02 1 0
27MT31_F22 1 32 65 45 45 right 1 5.000000e-01 /Users/lab/Documents/magic3Definitivo/stim/9_effect.mov 743 28-Apr-2017 17:12:07 -2.133919e+02 -2.163028e+02 1 1
27MT31_F22 1 33 47 -45 45 left 1 5.000000e-01 /Users/lab/Documents/magic3Definitivo/stim/6_noeffect.mov 529 28-Apr-2017 17:12:10 2.877779e+02 4.984199e+02 0 0
27MT31_F22 1 34 14 45 -45 right 1 5.000000e-01 /Users/lab/Documents/magic3Definitivo/stim/2_noeffect.mov 595 28-Apr-2017 17:12:13 1.241265e+02 -3.717092e+01 0 0
27MT31_F22 1 35 30 45 -45 right 1 5.000000e-01 /Users/lab/Documents/magic3Definitivo/stim/4_noeffect.mov 484 28-Apr-2017 17:12:15 -3.058144e+02 -4.518925e+02 0 0
27MT31_F22 1 36 3 -45 45 left 1 5.000000e-01 /Users/lab/Documents/magic3Definitivo/stim/1_effect.mov 677 28-Apr-2017 17:12:40 2.585934e+02 -9.261177e+01 1 1
27MT31_F22 1 37 15 -45 45 right 0 5.000000e-01 /Users/lab/Documents/magic3Definitivo/stim/2_noeffect.mov 426 28-Apr-2017 17:12:43 -1.710380e+02 -1.097573e+02 0 0
27MT31_F22 1 38 64 -45 -45 left 1 5.000000e-01 /Users/lab/Documents/magic3Definitivo/stim/8_noeffect.mov 528 28-Apr-2017 17:12:46 -1.244793e+02 -2.137891e+02 0 0
27MT31_F22 1 39 39 -45 45 left 1 5.000000e-01 /Users/lab/Documents/magic3Definitivo/stim/5_noeffect.mov 511 28-Apr-2017 17:12:49 -2.012277e+01 4.349437e+02 0 0
27MT31_F22 1 40 44 -45 -45 left 1 5.000000e-01 /Users/lab/Documents/magic3Definitivo/stim/6_effect.mov 678 28-Apr-2017 17:13:04 2.860836e+01 2.215817e+02 1 1
27MT31_F22 1 41 43 -45 45 left 1 5.000000e-01 /Users/lab/Documents/magic3Definitivo/stim/6_effect.mov 611 28-Apr-2017 17:13:07 -4.295887e+02 4.746463e+02 1 0
27MT31_F22 1 42 33 45 45 right 1 5.000000e-01 /Users/lab/Documents/magic3Definitivo/stim/5_effect.mov 414 28-Apr-2017 17:13:10 -1.080616e+02 8.456920e+00 1 0
27MT31_F22 1 43 34 45 -45 left 0 5.000000e-01 /Users/lab/Documents/magic3Definitivo/stim/5_effect.mov 398 28-Apr-2017 17:13:12 -3.428249e+02 2.342485e+02 1 0
27MT31_F22 1 44 71 -45 45 left 1 5.000000e-01 /Users/lab/Documents/magic3Definitivo/stim/9_noeffect.mov 743 28-Apr-2017 17:13:34 -4.603756e+02 -4.547239e+02 0 1
27MT31_F22 1 45 21 45 45 right 1 5.000000e-01 /Users/lab/Documents/magic3Definitivo/stim/3_noeffect.mov 544 28-Apr-2017 17:13:37 4.580329e+02 5.239480e+01 0 0
27MT31_F22 1 46 66 45 -45 right 1 5.000000e-01 /Users/lab/Documents/magic3Definitivo/stim/9_effect.mov 446 28-Apr-2017 17:13:40 -1.789751e+02 2.685156e+01 1 0
27MT31_F22 1 47 57 45 45 right 1 5.000000e-01 /Users/lab/Documents/magic3Definitivo/stim/8_effect.mov 408 28-Apr-2017 17:13:43 1.845920e+02 9.137898e+01 1 0
27MT31_F22 1 48 7 -45 45 left 1 5.000000e-01 /Users/lab/Documents/magic3Definitivo/stim/1_noeffect.mov 643 28-Apr-2017 17:14:07 -4.607143e+02 -1.886287e+02 1 1
27MT31_F22 1 49 40 -45 -45 left 1 5.000000e-01 /Users/lab/Documents/magic3Definitivo/stim/5_noeffect.mov 495 28-Apr-2017 17:14:10 -2.955850e+02 -4.725873e+02 0 0
27MT31_F22 1 50 25 45 45 right 1 5.000000e-01 /Users/lab/Documents/magic3Definitivo/stim/4_effect.mov 510 28-Apr-2017 17:14:13 7.370588e+01 1.975000e+02 1 0
27MT31_F22 1 51 27 -45 45 left 1 5.000000e-01 /Users/lab/Documents/magic3Definitivo/stim/4_effect.mov 545 28-Apr-2017 17:14:16 -1.294469e+02 -2.179506e+02 1 0
27MT31_F22 1 52 63 -45 45 left 1 5.000000e-01 /Users/lab/Documents/magic3Definitivo/stim/8_noeffect.mov 729 28-Apr-2017 17:14:37 -4.653486e+02 -1.202601e+02 0 1
27MT31_F22 1 53 4 -45 -45 left 1 5.000000e-01 /Users/lab/Documents/magic3Definitivo/stim/1_effect.mov 486 28-Apr-2017 17:14:40 3.246667e+02 2.853081e+02 1 0
27MT31_F22 1 54 62 45 -45 right 1 5.000000e-01 /Users/lab/Documents/magic3Definitivo/stim/8_noeffect.mov 486 28-Apr-2017 17:14:43 5.725955e+00 -1.119530e+02 0 0
27MT31_F22 1 55 58 45 -45 right 1 5.000000e-01 /Users/lab/Documents/magic3Definitivo/stim/8_effect.mov 452 28-Apr-2017 17:14:45 2.884291e+02 1.552862e+02 1 0
27MT31_F22 1 56 53 45 45 right 1 5.000000e-01 /Users/lab/Documents/magic3Definitivo/stim/7_noeffect.mov 711 28-Apr-2017 17:15:04 4.572267e+02 -9.010453e+01 0 1
27MT31_F22 1 57 37 45 45 right 1 5.000000e-01 /Users/lab/Documents/magic3Definitivo/stim/5_noeffect.mov 445 28-Apr-2017 17:15:07 -1.864399e+02 -3.114210e+02 0 0
27MT31_F22 1 58 50 45 -45 left 0 5.000000e-01 /Users/lab/Documents/magic3Definitivo/stim/7_effect.mov 528 28-Apr-2017 17:15:10 2.804254e+02 3.430296e+02 1 0
27MT31_F22 1 59 46 45 -45 right 1 5.000000e-01 /Users/lab/Documents/magic3Definitivo/stim/6_noeffect.mov 645 28-Apr-2017 17:15:13 -4.939834e+02 4.270874e+02 0 0
27MT31_F22 1 60 17 45 45 right 1 5.000000e-01 /Users/lab/Documents/magic3Definitivo/stim/3_effect.mov 727 28-Apr-2017 17:15:31 7.320109e+01 1.484272e+02 1 1
27MT31_F22 1 61 77 45 45 right 1 5.000000e-01 /Users/lab/Documents/magic3Definitivo/stim/10_noeffect.mov 387 28-Apr-2017 17:15:34 1.062940e+02 1.147488e+02 0 0
27MT31_F22 1 62 45 45 45 right 1 5.000000e-01 /Users/lab/Documents/magic3Definitivo/stim/6_noeffect.mov 437 28-Apr-2017 17:15:37 -2.523612e+01 -3.697713e+02 0 0
27MT31_F22 1 63 74 45 -45 right 1 5.000000e-01 /Users/lab/Documents/magic3Definitivo/stim/10_effect.mov 645 28-Apr-2017 17:15:40 -2.244711e+02 3.551101e+02 1 0
27MT31_F22 1 64 60 -45 -45 left 1 5.000000e-01 /Users/lab/Documents/magic3Definitivo/stim/8_effect.mov 812 28-Apr-2017 17:16:01 -1.539750e+02 -1.933935e+01 1 1
27MT31_F22 1 65 19 -45 45 left 1 5.000000e-01 /Users/lab/Documents/magic3Definitivo/stim/3_effect.mov 554 28-Apr-2017 17:16:04 8.085187e+01 1.370959e+02 1 0
27MT31_F22 1 66 36 -45 45 left 1 5.000000e-01 /Users/lab/Documents/magic3Definitivo/stim/5_effect.mov 612 28-Apr-2017 17:16:07 -2.109533e+02 -3.680463e+02 1 0
27MT31_F22 1 67 79 -45 45 left 1 5.000000e-01 /Users/lab/Documents/magic3Definitivo/stim/10_noeffect.mov 595 28-Apr-2017 17:16:10 3.247003e+02 2.630950e+02 0 0
27MT31_F22 1 68 9 45 45 right 1 5.000000e-01 /Users/lab/Documents/magic3Definitivo/stim/2_effect.mov 645 28-Apr-2017 17:16:35 -4.091202e+02 1.362459e+02 1 1
27MT31_F22 1 69 42 45 -45 right 1 5.000000e-01 /Users/lab/Documents/magic3Definitivo/stim/6_effect.mov 574 28-Apr-2017 17:16:38 2.544681e+02 1.727168e+02 1 0
27MT31_F22 1 70 8 -45 -45 left 1 5.000000e-01 /Users/lab/Documents/magic3Definitivo/stim/1_noeffect.mov 546 28-Apr-2017 17:16:41 3.050328e+02 2.908955e+02 1 0
27MT31_F22 1 71 68 -45 -45 left 1 5.000000e-01 /Users/lab/Documents/magic3Definitivo/stim/9_effect.mov 528 28-Apr-2017 17:16:44 3.371991e+02 2.090376e+02 1 0
27MT31_F22 1 72 24 -45 -45 left 1 5.000000e-01 /Users/lab/Documents/magic3Definitivo/stim/3_noeffect.mov 560 28-Apr-2017 17:17:02 1.830630e+02 -2.715481e+02 0 1
27MT31_F22 1 73 69 45 45 right 1 5.000000e-01 /Users/lab/Documents/magic3Definitivo/stim/9_noeffect.mov 562 28-Apr-2017 17:17:05 -3.270299e+02 -3.228507e+02 0 0
27MT31_F22 1 74 67 -45 45 left 1 5.000000e-01 /Users/lab/Documents/magic3Definitivo/stim/9_effect.mov 491 28-Apr-2017 17:17:07 -1.748531e+02 1.425687e+01 1 0
27MT31_F22 1 75 18 45 -45 right 1 5.000000e-01 /Users/lab/Documents/magic3Definitivo/stim/3_effect.mov 447 28-Apr-2017 17:17:10 -5.563164e+01 -3.969299e+02 1 0
27MT31_F22 1 76 23 -45 45 left 1 5.000000e-01 /Users/lab/Documents/magic3Definitivo/stim/3_noeffect.mov 577 28-Apr-2017 17:17:28 4.177323e+01 -7.732573e+01 0 1
27MT31_F22 1 77 36 -45 -45 left 1 5.000000e-01 /Users/lab/Documents/magic3Definitivo/stim/5_effect.mov 483 28-Apr-2017 17:17:31 2.744625e+02 -3.478993e+02 1 0
27MT31_F22 1 78 51 -45 45 left 1 5.000000e-01 /Users/lab/Documents/magic3Definitivo/stim/7_effect.mov 464 28-Apr-2017 17:17:34 9.430021e+01 -2.136758e+02 1 0
27MT31_F22 1 79 72 -45 -45 left 1 5.000000e-01 /Users/lab/Documents/magic3Definitivo/stim/9_noeffect.mov 403 28-Apr-2017 17:17:37 4.023039e+01 2.227490e+02 0 0
27MT31_F22 1 80 55 -45 45 left 1 5.000000e-01 /Users/lab/Documents/magic3Definitivo/stim/7_noeffect.mov 629 28-Apr-2017 17:17:40 -3.855547e+02 -1.292021e+02 0 0
