subject_name subjectNumber iTrial unshuffled_trial targetOrientation flankersOrientation response correct onscreen_stim_duration magicShows rt date time_of_day deltaX deltaY surpriseClip isClipTrial
98CS21F19 2 1 13 45 45 right 1 5.000000e-01 /Users/lab/Documents/magic3Definitivo/stim/2_noeffect.mov 940 27-Apr-2017 13:03:20 -5.616730e+01 -2.085821e+02 0 1
98CS21F19 2 2 61 45 45 left 0 5.000000e-01 /Users/lab/Documents/magic3Definitivo/stim/8_noeffect.mov 736 27-Apr-2017 13:03:23 -4.336927e+02 3.572574e+02 0 0
98CS21F19 2 3 36 -45 -45 left 1 5.000000e-01 /Users/lab/Documents/magic3Definitivo/stim/5_effect.mov 1120 27-Apr-2017 13:03:26 -3.959598e+02 3.423705e+02 1 0
98CS21F19 2 4 32 -45 -45 left 1 5.000000e-01 /Users/lab/Documents/magic3Definitivo/stim/4_noeffect.mov 886 27-Apr-2017 13:03:44 2.819203e+02 -2.924211e+02 0 1
98CS21F19 2 5 58 45 -45 right 1 5.000000e-01 /Users/lab/Documents/magic3Definitivo/stim/8_effect.mov 737 27-Apr-2017 13:03:47 -1.958407e+02 4.888492e+01 1 0
98CS21F19 2 6 74 45 -45 right 1 5.000000e-01 /Users/lab/Documents/magic3Definitivo/stim/10_effect.mov 752 27-Apr-2017 13:03:50 2.710674e+02 4.832999e+02 1 0
98CS21F19 2 7 70 45 -45 right 1 5.000000e-01 /Users/lab/Documents/magic3Definitivo/stim/9_noeffect.mov 753 27-Apr-2017 13:03:53 -2.834545e+02 -4.580301e+02 0 0
98CS21F19 2 8 59 -45 45 left 1 5.000000e-01 /Users/lab/Documents/magic3Definitivo/stim/8_effect.mov 853 27-Apr-2017 13:04:14 2.824200e+02 -4.676811e+02 1 1
98CS21F19 2 9 22 45 -45 right 1 5.000000e-01 /Users/lab/Documents/magic3Definitivo/stim/3_noeffect.mov 719 27-Apr-2017 13:04:17 4.991861e+02 -3.156325e+02 0 0
98CS21F19 2 10 5 45 45 right 1 5.000000e-01 /Users/lab/Documents/magic3Definitivo/stim/1_noeffect.mov 870 27-Apr-2017 13:04:20 2.613726e+02 -4.882888e+02 1 0
98CS21F19 2 11 26 45 -45 right 1 5.000000e-01 /Users/lab/Documents/magic3Definitivo/stim/4_effect.mov 619 27-Apr-2017 13:04:23 -9.901895e+01 -2.103894e+02 1 0
98CS21F19 2 12 23 -45 45 left 1 5.000000e-01 /Users/lab/Documents/magic3Definitivo/stim/3_noeffect.mov 903 27-Apr-2017 13:04:41 2.615206e+02 3.913424e+02 0 1
98CS21F19 2 13 14 45 -45 right 1 5.000000e-01 /Users/lab/Documents/magic3Definitivo/stim/2_noeffect.mov 670 27-Apr-2017 13:04:44 -3.691635e+02 3.714244e+02 0 0
98CS21F19 2 14 66 45 -45 right 1 5.000000e-01 /Users/lab/Documents/magic3Definitivo/stim/9_effect.mov 669 27-Apr-2017 13:04:47 3.735101e+02 1.793493e+02 1 0
98CS21F19 2 15 73 45 45 right 1 5.000000e-01 /Users/lab/Documents/magic3Definitivo/stim/10_effect.mov 787 27-Apr-2017 13:04:51 3.177428e+02 -2.949172e+02 1 0
98CS21F19 2 16 63 -45 45 left 1 5.000000e-01 /Users/lab/Documents/magic3Definitivo/stim/8_noeffect.mov 803 27-Apr-2017 13:05:12 4.385236e+02 4.109221e+01 0 1
98CS21F19 2 17 51 -45 45 left 1 5.000000e-01 /Users/lab/Documents/magic3Definitivo/stim/7_effect.mov 769 27-Apr-2017 13:05:15 -3.035284e+01 -1.980463e+01 1 0
98CS21F19 2 18 76 -45 -45 left 1 5.000000e-01 /Users/lab/Documents/magic3Definitivo/stim/10_effect.mov 569 27-Apr-2017 13:05:18 2.817487e+02 -1.287842e+02 1 0
98CS21F19 2 19 20 -45 -45 left 1 5.000000e-01 /Users/lab/Documents/magic3Definitivo/stim/3_effect.mov 720 27-Apr-2017 13:05:21 -1.784577e+02 2.547131e+02 1 0
98CS21F19 2 20 9 45 45 right 1 5.000000e-01 /Users/lab/Documents/magic3Definitivo/stim/2_effect.mov 1058 27-Apr-2017 13:05:46 -1.391347e+02 1.895538e+02 1 1
98CS21F19 2 21 30 45 -45 right 1 5.000000e-01 /Users/lab/Documents/magic3Definitivo/stim/4_noeffect.mov 719 27-Apr-2017 13:05:49 2.910254e+02 -3.197149e+02 0 0
98CS21F19 2 22 47 -45 45 left 1 5.000000e-01 /Users/lab/Documents/magic3Definitivo/stim/6_noeffect.mov 669 27-Apr-2017 13:05:52 3.250608e+02 7.274545e+01 0 0
98CS21F19 2 23 3 -45 45 left 1 5.000000e-01 /Users/lab/Documents/magic3Definitivo/stim/1_effect.mov 787 27-Apr-2017 13:05:56 -4.156638e+02 2.920478e+02 1 0
98CS21F19 2 24 68 -45 -45 left 1 5.000000e-01 /Users/lab/Documents/magic3Definitivo/stim/9_effect.mov 1069 27-Apr-2017 13:06:18 2.662237e+02 -3.411079e+02 1 1
98CS21F19 2 25 41 45 45 right 1 5.000000e-01 /Users/lab/Documents/magic3Definitivo/stim/6_effect.mov 837 27-Apr-2017 13:06:21 -4.611181e+02 2.203372e+02 1 0
98CS21F19 2 26 57 45 45 right 1 5.000000e-01 /Users/lab/Documents/magic3Definitivo/stim/8_effect.mov 940 27-Apr-2017 13:06:24 4.334913e+02 -5.626251e+01 1 0
98CS21F19 2 27 72 -45 -45 left 1 5.000000e-01 /Users/lab/Documents/magic3Definitivo/stim/9_noeffect.mov 686 27-Apr-2017 13:06:27 3.205769e+02 -3.028382e+02 0 0
98CS21F19 2 28 37 45 45 right 1 5.000000e-01 /Users/lab/Documents/magic3Definitivo/stim/5_noeffect.mov 828 27-Apr-2017 13:06:44 1.127308e+02 -1.713171e+02 0 1
98CS21F19 2 29 21 45 45 right 1 5.000000e-01 /Users/lab/Documents/magic3Definitivo/stim/3_noeffect.mov 761 27-Apr-2017 13:06:47 1.424007e+02 -5.754153e+01 0 0
98CS21F19 2 30 11 -45 45 left 1 5.000000e-01 /Users/lab/Documents/magic3Definitivo/stim/2_effect.mov 746 27-Apr-2017 13:06:50 2.572573e+02 4.676838e+02 1 0
98CS21F19 2 31 36 -45 45 left 1 5.000000e-01 /Users/lab/Documents/magic3Definitivo/stim/5_effect.mov 610 27-Apr-2017 13:06:53 2.326496e+02 -1.926887e+02 1 0
98CS21F19 2 32 25 45 45 right 1 5.000000e-01 /Users/lab/Documents/magic3Definitivo/stim/4_effect.mov 844 27-Apr-2017 13:07:10 -4.628394e+02 -3.910659e+02 1 1
98CS21F19 2 33 45 45 45 left 0 5.000000e-01 /Users/lab/Documents/magic3Definitivo/stim/6_noeffect.mov 676 27-Apr-2017 13:07:13 -3.168809e+02 4.515242e+02 0 0
98CS21F19 2 34 62 45 -45 right 1 5.000000e-01 /Users/lab/Documents/magic3Definitivo/stim/8_noeffect.mov 745 27-Apr-2017 13:07:16 -3.144263e+02 3.944908e+02 0 0
98CS21F19 2 35 79 -45 45 left 1 5.000000e-01 /Users/lab/Documents/magic3Definitivo/stim/10_noeffect.mov 827 27-Apr-2017 13:07:19 4.778817e+02 3.649976e+02 0 0
98CS21F19 2 36 12 -45 -45 left 1 5.000000e-01 /Users/lab/Documents/magic3Definitivo/stim/2_effect.mov 763 27-Apr-2017 13:07:45 1.093827e+02 2.758726e+02 1 1
98CS21F19 2 37 34 45 -45 right 1 5.000000e-01 /Users/lab/Documents/magic3Definitivo/stim/5_effect.mov 695 27-Apr-2017 13:07:48 1.377035e+01 2.864080e+02 1 0
98CS21F19 2 38 40 -45 -45 left 1 5.000000e-01 /Users/lab/Documents/magic3Definitivo/stim/5_noeffect.mov 861 27-Apr-2017 13:07:51 7.760233e+01 -4.017631e+02 0 0
98CS21F19 2 39 49 45 45 right 1 5.000000e-01 /Users/lab/Documents/magic3Definitivo/stim/7_effect.mov 560 27-Apr-2017 13:07:54 -2.657676e+01 -1.412834e+01 1 0
98CS21F19 2 40 24 -45 -45 left 1 5.000000e-01 /Users/lab/Documents/magic3Definitivo/stim/3_noeffect.mov 811 27-Apr-2017 13:08:12 2.251946e+02 6.671641e+01 0 1
98CS21F19 2 41 67 -45 45 left 1 5.000000e-01 /Users/lab/Documents/magic3Definitivo/stim/9_effect.mov 727 27-Apr-2017 13:08:15 -1.540485e+02 8.788539e+01 1 0
98CS21F19 2 42 44 -45 -45 left 1 5.000000e-01 /Users/lab/Documents/magic3Definitivo/stim/6_effect.mov 677 27-Apr-2017 13:08:18 -1.125415e+02 1.640693e+02 1 0
98CS21F19 2 43 65 45 45 right 1 5.000000e-01 /Users/lab/Documents/magic3Definitivo/stim/9_effect.mov 679 27-Apr-2017 13:08:22 -2.455070e+02 3.004688e+02 1 0
98CS21F19 2 44 19 -45 45 left 1 5.000000e-01 /Users/lab/Documents/magic3Definitivo/stim/3_effect.mov 846 27-Apr-2017 13:08:40 4.051246e+02 3.048356e+02 1 1
98CS21F19 2 45 53 45 45 right 1 5.000000e-01 /Users/lab/Documents/magic3Definitivo/stim/7_noeffect.mov 828 27-Apr-2017 13:08:43 -3.930818e+02 -3.566832e+02 0 0
98CS21F19 2 46 18 45 -45 right 1 5.000000e-01 /Users/lab/Documents/magic3Definitivo/stim/3_effect.mov 645 27-Apr-2017 13:08:46 1.709779e+02 1.081775e+02 1 0
98CS21F19 2 47 39 -45 45 left 1 5.000000e-01 /Users/lab/Documents/magic3Definitivo/stim/5_noeffect.mov 660 27-Apr-2017 13:08:49 3.792393e+02 4.688305e+02 0 0
98CS21F19 2 48 42 45 -45 right 1 5.000000e-01 /Users/lab/Documents/magic3Definitivo/stim/6_effect.mov 980 27-Apr-2017 13:09:04 3.580298e+02 -2.869626e+02 1 1
98CS21F19 2 49 28 -45 -45 left 1 5.000000e-01 /Users/lab/Documents/magic3Definitivo/stim/4_effect.mov 594 27-Apr-2017 13:09:07 8.675033e+01 -3.498377e+02 1 0
98CS21F19 2 50 52 -45 -45 left 1 5.000000e-01 /Users/lab/Documents/magic3Definitivo/stim/7_effect.mov 985 27-Apr-2017 13:09:11 -2.967372e+02 3.056635e+02 1 0
98CS21F19 2 51 1 45 45 right 1 5.000000e-01 /Users/lab/Documents/magic3Definitivo/stim/1_effect.mov 726 27-Apr-2017 13:09:14 -2.158360e+02 -2.308457e+02 1 0
98CS21F19 2 52 60 -45 -45 left 1 5.000000e-01 /Users/lab/Documents/magic3Definitivo/stim/8_effect.mov 795 27-Apr-2017 13:09:35 3.014668e+02 -3.287633e+01 1 1
98CS21F19 2 53 10 45 -45 right 1 5.000000e-01 /Users/lab/Documents/magic3Definitivo/stim/2_effect.mov 709 27-Apr-2017 13:09:38 -8.762094e+01 6.436808e+01 1 0
98CS21F19 2 54 48 -45 -45 left 1 5.000000e-01 /Users/lab/Documents/magic3Definitivo/stim/6_noeffect.mov 793 27-Apr-2017 13:09:41 3.364786e+02 2.267765e+02 0 0
98CS21F19 2 55 7 -45 45 left 1 5.000000e-01 /Users/lab/Documents/magic3Definitivo/stim/1_noeffect.mov 693 27-Apr-2017 13:09:44 2.373058e+02 6.790437e+00 1 0
98CS21F19 2 56 54 45 -45 right 1 5.000000e-01 /Users/lab/Documents/magic3Definitivo/stim/7_noeffect.mov 846 27-Apr-2017 13:10:03 -2.166149e+02 -1.852335e+02 0 1
98CS21F19 2 57 56 -45 -45 left 1 5.000000e-01 /Users/lab/Documents/magic3Definitivo/stim/7_noeffect.mov 793 27-Apr-2017 13:10:06 -2.446165e+02 -6.526999e+01 0 0
98CS21F19 2 58 38 45 -45 right 1 5.000000e-01 /Users/lab/Documents/magic3Definitivo/stim/5_noeffect.mov 728 27-Apr-2017 13:10:09 -4.648802e+02 -2.894158e+02 0 0
98CS21F19 2 59 75 -45 45 left 1 5.000000e-01 /Users/lab/Documents/magic3Definitivo/stim/10_effect.mov 677 27-Apr-2017 13:10:12 -2.545704e+02 -2.965205e+02 1 0
98CS21F19 2 60 4 -45 -45 left 1 5.000000e-01 /Users/lab/Documents/magic3Definitivo/stim/1_effect.mov 961 27-Apr-2017 13:10:38 -4.984070e+02 3.453073e+02 1 1
98CS21F19 2 61 78 45 -45 right 1 5.000000e-01 /Users/lab/Documents/magic3Definitivo/stim/10_noeffect.mov 676 27-Apr-2017 13:10:41 -2.932607e+02 -3.352661e+02 0 0
98CS21F19 2 62 29 45 45 right 1 5.000000e-01 /Users/lab/Documents/magic3Definitivo/stim/4_noeffect.mov 729 27-Apr-2017 13:10:44 -3.912449e+02 3.333473e+02 0 0
98CS21F19 2 63 27 -45 45 left 1 5.000000e-01 /Users/lab/Documents/magic3Definitivo/stim/4_effect.mov 576 27-Apr-2017 13:10:47 -2.878962e+02 -2.001367e+02 1 0
