subject_name subjectNumber iTrial unshuffled_trial targetOrientation flankersOrientation response correct onscreen_stim_duration magicShows rt date time_of_day deltaX deltaY surpriseClip isClipTrial
43CP19_F19 4 1 24 -45 -45 left 1 5.000000e-01 /Users/lab/Documents/magic3Definitivo/stim/3_noeffect.mov 660 26-Apr-2017 11:43:28 1.923874e+02 -3.656841e+01 0 1
43CP19_F19 4 2 11 -45 45 left 1 5.000000e-01 /Users/lab/Documents/magic3Definitivo/stim/2_effect.mov 644 26-Apr-2017 11:43:31 -2.305516e+02 4.949260e+01 1 0
43CP19_F19 4 3 80 -45 -45 left 1 5.000000e-01 /Users/lab/Documents/magic3Definitivo/stim/10_noeffect.mov 530 26-Apr-2017 11:43:34 -3.170297e+02 -1.032417e+02 0 0
43CP19_F19 4 4 78 45 -45 right 1 5.000000e-01 /Users/lab/Documents/magic3Definitivo/stim/10_noeffect.mov 777 26-Apr-2017 11:43:48 -2.653270e+02 3.188060e+02 0 1
43CP19_F19 4 5 50 45 -45 right 1 5.000000e-01 /Users/lab/Documents/magic3Definitivo/stim/7_effect.mov 545 26-Apr-2017 11:43:51 7.394421e+01 -2.552972e+02 1 0
43CP19_F19 4 6 32 -45 -45 left 1 5.000000e-01 /Users/lab/Documents/magic3Definitivo/stim/4_noeffect.mov 772 26-Apr-2017 11:43:54 1.918798e+02 -3.903548e+02 0 0
43CP19_F19 4 7 16 -45 -45 left 1 5.000000e-01 /Users/lab/Documents/magic3Definitivo/stim/2_noeffect.mov 528 26-Apr-2017 11:43:57 -2.241259e+02 -6.629984e+01 0 0
43CP19_F19 4 8 58 45 -45 right 1 5.000000e-01 /Users/lab/Documents/magic3Definitivo/stim/8_effect.mov 760 26-Apr-2017 11:44:18 2.721586e+01 -4.975618e+02 1 1
43CP19_F19 4 9 41 45 45 right 1 5.000000e-01 /Users/lab/Documents/magic3Definitivo/stim/6_effect.mov 485 26-Apr-2017 11:44:20 1.617493e+02 -1.019885e+02 1 0
43CP19_F19 4 10 44 -45 -45 left 1 5.000000e-01 /Users/lab/Documents/magic3Definitivo/stim/6_effect.mov 643 26-Apr-2017 11:44:23 2.504499e+02 1.681079e+02 1 0
43CP19_F19 4 11 55 -45 45 left 1 5.000000e-01 /Users/lab/Documents/magic3Definitivo/stim/7_noeffect.mov 760 26-Apr-2017 11:44:27 4.798300e+02 1.813636e+02 0 0
43CP19_F19 4 12 12 -45 -45 left 1 5.000000e-01 /Users/lab/Documents/magic3Definitivo/stim/2_effect.mov 542 26-Apr-2017 11:44:52 -2.158423e+02 -1.404084e+01 1 1
43CP19_F19 4 13 48 -45 -45 left 1 5.000000e-01 /Users/lab/Documents/magic3Definitivo/stim/6_noeffect.mov 564 26-Apr-2017 11:44:55 -2.641175e+02 -4.270349e+02 0 0
43CP19_F19 4 14 14 45 -45 right 1 5.000000e-01 /Users/lab/Documents/magic3Definitivo/stim/2_noeffect.mov 658 26-Apr-2017 11:44:58 9.758958e+01 -1.741755e+02 0 0
43CP19_F19 4 15 49 45 45 right 1 5.000000e-01 /Users/lab/Documents/magic3Definitivo/stim/7_effect.mov 708 26-Apr-2017 11:45:01 -2.378634e+02 2.885971e+02 1 0
43CP19_F19 4 16 46 45 -45 right 1 5.000000e-01 /Users/lab/Documents/magic3Definitivo/stim/6_noeffect.mov 726 26-Apr-2017 11:45:16 3.921963e+02 -1.550960e+02 0 1
43CP19_F19 4 17 71 -45 45 left 1 5.000000e-01 /Users/lab/Documents/magic3Definitivo/stim/9_noeffect.mov 728 26-Apr-2017 11:45:19 -2.352817e+02 -1.006903e+02 0 0
43CP19_F19 4 18 7 -45 45 left 1 5.000000e-01 /Users/lab/Documents/magic3Definitivo/stim/1_noeffect.mov 713 26-Apr-2017 11:45:22 3.616779e+02 6.909282e+01 1 0
43CP19_F19 4 19 29 45 45 right 1 5.000000e-01 /Users/lab/Documents/magic3Definitivo/stim/4_noeffect.mov 710 26-Apr-2017 11:45:25 3.324743e+01 -6.868663e+01 0 0
43CP19_F19 4 20 21 45 45 right 1 5.000000e-01 /Users/lab/Documents/magic3Definitivo/stim/3_noeffect.mov 660 26-Apr-2017 11:45:43 3.317471e+02 4.114695e+01 0 1
43CP19_F19 4 21 20 -45 -45 left 1 5.000000e-01 /Users/lab/Documents/magic3Definitivo/stim/3_effect.mov 578 26-Apr-2017 11:45:46 2.463815e+01 -3.406057e+02 1 0
43CP19_F19 4 22 47 -45 45 left 1 5.000000e-01 /Users/lab/Documents/magic3Definitivo/stim/6_noeffect.mov 727 26-Apr-2017 11:45:49 1.823267e+02 4.250591e+02 0 0
43CP19_F19 4 23 19 -45 45 left 1 5.000000e-01 /Users/lab/Documents/magic3Definitivo/stim/3_effect.mov 627 26-Apr-2017 11:45:52 -4.517784e+02 8.683565e+01 1 0
43CP19_F19 4 24 66 45 -45 right 1 5.000000e-01 /Users/lab/Documents/magic3Definitivo/stim/9_effect.mov 926 26-Apr-2017 11:46:14 -3.760815e+02 3.719262e+02 1 1
43CP19_F19 4 25 79 -45 45 left 1 5.000000e-01 /Users/lab/Documents/magic3Definitivo/stim/10_noeffect.mov 623 26-Apr-2017 11:46:17 -1.291818e+02 4.155507e+02 0 0
43CP19_F19 4 26 13 45 45 right 1 5.000000e-01 /Users/lab/Documents/magic3Definitivo/stim/2_noeffect.mov 523 26-Apr-2017 11:46:20 -1.190164e+02 8.214945e+01 0 0
43CP19_F19 4 27 39 -45 45 left 1 5.000000e-01 /Users/lab/Documents/magic3Definitivo/stim/5_noeffect.mov 706 26-Apr-2017 11:46:23 3.934370e+02 9.248129e+01 0 0
43CP19_F19 4 28 42 45 -45 right 1 5.000000e-01 /Users/lab/Documents/magic3Definitivo/stim/6_effect.mov 894 26-Apr-2017 11:46:38 4.938110e+02 -3.520509e+02 1 1
43CP19_F19 4 29 51 -45 45 left 1 5.000000e-01 /Users/lab/Documents/magic3Definitivo/stim/7_effect.mov 644 26-Apr-2017 11:46:41 -3.755655e+02 1.363813e+02 1 0
43CP19_F19 4 30 40 -45 -45 left 1 5.000000e-01 /Users/lab/Documents/magic3Definitivo/stim/5_noeffect.mov 743 26-Apr-2017 11:46:44 8.037631e+01 -2.270147e+02 0 0
43CP19_F19 4 31 36 -45 -45 left 1 5.000000e-01 /Users/lab/Documents/magic3Definitivo/stim/5_effect.mov 496 26-Apr-2017 11:46:47 -4.418335e+02 -1.742100e+02 1 0
43CP19_F19 4 32 5 45 45 right 1 5.000000e-01 /Users/lab/Documents/magic3Definitivo/stim/1_noeffect.mov 776 26-Apr-2017 11:47:12 2.245337e+02 4.542526e+02 1 1
43CP19_F19 4 33 70 45 -45 right 1 5.000000e-01 /Users/lab/Documents/magic3Definitivo/stim/9_noeffect.mov 709 26-Apr-2017 11:47:15 1.234992e+02 1.027781e+02 0 0
43CP19_F19 4 34 76 -45 -45 left 1 5.000000e-01 /Users/lab/Documents/magic3Definitivo/stim/10_effect.mov 609 26-Apr-2017 11:47:18 1.955220e+02 -2.515848e+02 1 0
43CP19_F19 4 35 62 45 -45 right 1 5.000000e-01 /Users/lab/Documents/magic3Definitivo/stim/8_noeffect.mov 708 26-Apr-2017 11:47:21 1.983087e+02 4.396406e+02 0 0
43CP19_F19 4 36 59 -45 45 left 1 5.000000e-01 /Users/lab/Documents/magic3Definitivo/stim/8_effect.mov 710 26-Apr-2017 11:47:42 -2.516683e+02 -1.814814e+02 1 1
43CP19_F19 4 37 73 45 45 right 1 5.000000e-01 /Users/lab/Documents/magic3Definitivo/stim/10_effect.mov 557 26-Apr-2017 11:47:45 -3.260350e+02 -2.948503e+02 1 0
43CP19_F19 4 38 45 45 45 right 1 5.000000e-01 /Users/lab/Documents/magic3Definitivo/stim/6_noeffect.mov 578 26-Apr-2017 11:47:48 2.483915e+02 -1.937433e+02 0 0
43CP19_F19 4 39 38 45 -45 right 1 5.000000e-01 /Users/lab/Documents/magic3Definitivo/stim/5_noeffect.mov 714 26-Apr-2017 11:47:51 2.948498e+02 4.503506e+02 0 0
43CP19_F19 4 40 6 45 -45 right 1 5.000000e-01 /Users/lab/Documents/magic3Definitivo/stim/1_noeffect.mov 694 26-Apr-2017 11:48:16 -4.443449e+02 -3.749808e+02 1 1
43CP19_F19 4 41 67 -45 45 left 1 5.000000e-01 /Users/lab/Documents/magic3Definitivo/stim/9_effect.mov 493 26-Apr-2017 11:48:19 -1.179506e+02 -3.387614e+02 1 0
43CP19_F19 4 42 28 -45 -45 left 1 5.000000e-01 /Users/lab/Documents/magic3Definitivo/stim/4_effect.mov 544 26-Apr-2017 11:48:21 -4.741390e+02 -1.144321e+02 1 0
43CP19_F19 4 43 64 -45 -45 left 1 5.000000e-01 /Users/lab/Documents/magic3Definitivo/stim/8_noeffect.mov 459 26-Apr-2017 11:48:24 -1.319422e+02 -1.841747e+02 0 0
43CP19_F19 4 44 8 -45 -45 left 1 5.000000e-01 /Users/lab/Documents/magic3Definitivo/stim/1_noeffect.mov 560 26-Apr-2017 11:48:49 -2.136172e+01 -1.055898e+02 1 1
43CP19_F19 4 45 15 -45 45 left 1 5.000000e-01 /Users/lab/Documents/magic3Definitivo/stim/2_noeffect.mov 763 26-Apr-2017 11:48:52 1.772309e+02 -4.779560e+02 0 0
43CP19_F19 4 46 77 45 45 right 1 5.000000e-01 /Users/lab/Documents/magic3Definitivo/stim/10_noeffect.mov 580 26-Apr-2017 11:48:55 -1.464124e+02 3.523989e+02 0 0
43CP19_F19 4 47 22 45 -45 right 1 5.000000e-01 /Users/lab/Documents/magic3Definitivo/stim/3_noeffect.mov 590 26-Apr-2017 11:48:58 -9.045912e+01 -2.416445e+02 0 0
43CP19_F19 4 48 60 -45 -45 left 1 5.000000e-01 /Users/lab/Documents/magic3Definitivo/stim/8_effect.mov 676 26-Apr-2017 11:49:19 2.917111e+02 3.827278e+02 1 1
43CP19_F19 4 49 3 -45 45 left 1 5.000000e-01 /Users/lab/Documents/magic3Definitivo/stim/1_effect.mov 660 26-Apr-2017 11:49:22 3.122525e+02 -1.153249e+02 1 0
43CP19_F19 4 50 23 -45 45 left 1 5.000000e-01 /Users/lab/Documents/magic3Definitivo/stim/3_noeffect.mov 629 26-Apr-2017 11:49:25 3.470397e+02 -4.441650e+02 0 0
43CP19_F19 4 51 34 45 -45 right 1 5.000000e-01 /Users/lab/Documents/magic3Definitivo/stim/5_effect.mov 547 26-Apr-2017 11:49:28 -1.065465e+02 -2.760768e+02 1 0
43CP19_F19 4 52 10 45 -45 right 1 5.000000e-01 /Users/lab/Documents/magic3Definitivo/stim/2_effect.mov 793 26-Apr-2017 11:49:53 4.618487e+02 1.420899e+01 1 1
43CP19_F19 4 53 2 45 -45 right 1 5.000000e-01 /Users/lab/Documents/magic3Definitivo/stim/1_effect.mov 677 26-Apr-2017 11:49:56 4.884710e+02 -1.963211e+02 1 0
43CP19_F19 4 54 25 45 45 right 1 5.000000e-01 /Users/lab/Documents/magic3Definitivo/stim/4_effect.mov 478 26-Apr-2017 11:49:59 2.480571e+02 -2.609286e+02 1 0
43CP19_F19 4 55 4 -45 -45 left 1 5.000000e-01 /Users/lab/Documents/magic3Definitivo/stim/1_effect.mov 460 26-Apr-2017 11:50:02 -1.843048e+02 -1.961025e+02 1 0
43CP19_F19 4 56 56 -45 -45 left 1 5.000000e-01 /Users/lab/Documents/magic3Definitivo/stim/7_noeffect.mov 593 26-Apr-2017 11:50:21 2.707863e+02 2.173306e+02 0 1
43CP19_F19 4 57 33 45 45 right 1 5.000000e-01 /Users/lab/Documents/magic3Definitivo/stim/5_effect.mov 623 26-Apr-2017 11:50:24 3.888659e+02 1.599234e+02 1 0
43CP19_F19 4 58 30 45 -45 right 1 5.000000e-01 /Users/lab/Documents/magic3Definitivo/stim/4_noeffect.mov 639 26-Apr-2017 11:50:27 2.092032e+01 -2.269867e+02 0 0
43CP19_F19 4 59 52 -45 -45 left 1 5.000000e-01 /Users/lab/Documents/magic3Definitivo/stim/7_effect.mov 521 26-Apr-2017 11:50:30 1.211804e+02 -4.976440e+02 1 0
43CP19_F19 4 60 72 -45 -45 left 1 5.000000e-01 /Users/lab/Documents/magic3Definitivo/stim/9_noeffect.mov 627 26-Apr-2017 11:50:51 -4.644616e+02 3.755355e+02 0 1
43CP19_F19 4 61 54 45 -45 right 1 5.000000e-01 /Users/lab/Documents/magic3Definitivo/stim/7_noeffect.mov 627 26-Apr-2017 11:50:54 -3.794923e+02 -2.869099e+01 0 0
43CP19_F19 4 62 53 45 45 right 1 5.000000e-01 /Users/lab/Documents/magic3Definitivo/stim/7_noeffect.mov 528 26-Apr-2017 11:50:57 -4.956525e+02 -4.549252e+02 0 0
43CP19_F19 4 63 65 45 45 right 1 5.000000e-01 /Users/lab/Documents/magic3Definitivo/stim/9_effect.mov 576 26-Apr-2017 11:51:00 4.454774e+02 3.677033e+02 1 0
43CP19_F19 4 64 63 -45 45 left 1 5.000000e-01 /Users/lab/Documents/magic3Definitivo/stim/8_noeffect.mov 826 26-Apr-2017 11:51:21 1.380588e+02 4.016573e+02 0 1
43CP19_F19 4 65 1 45 45 right 1 5.000000e-01 /Users/lab/Documents/magic3Definitivo/stim/1_effect.mov 497 26-Apr-2017 11:51:24 -2.277226e+02 -4.534701e+02 1 0
43CP19_F19 4 66 18 45 -45 right 1 5.000000e-01 /Users/lab/Documents/magic3Definitivo/stim/3_effect.mov 573 26-Apr-2017 11:51:27 -3.051792e+02 -1.433266e+02 1 0
43CP19_F19 4 67 17 45 45 right 1 5.000000e-01 /Users/lab/Documents/magic3Definitivo/stim/3_effect.mov 524 26-Apr-2017 11:51:30 1.833576e+02 4.357316e+01 1 0
43CP19_F19 4 68 9 45 45 right 1 5.000000e-01 /Users/lab/Documents/magic3Definitivo/stim/2_effect.mov 726 26-Apr-2017 11:51:55 1.353565e+02 2.002629e+02 1 1
43CP19_F19 4 69 31 -45 45 left 1 5.000000e-01 /Users/lab/Documents/magic3Definitivo/stim/4_noeffect.mov 528 26-Apr-2017 11:51:58 -7.280898e+01 -6.050756e+01 0 0
43CP19_F19 4 70 27 -45 45 left 1 5.000000e-01 /Users/lab/Documents/magic3Definitivo/stim/4_effect.mov 561 26-Apr-2017 11:52:01 -4.663837e+02 -3.895620e+02 1 0
43CP19_F19 4 71 37 45 45 right 1 5.000000e-01 /Users/lab/Documents/magic3Definitivo/stim/5_noeffect.mov 480 26-Apr-2017 11:52:04 1.972951e+02 -7.329718e+01 0 0
43CP19_F19 4 72 43 -45 45 left 1 5.000000e-01 /Users/lab/Documents/magic3Definitivo/stim/6_effect.mov 710 26-Apr-2017 11:52:19 2.081286e+02 3.888878e+02 1 1
43CP19_F19 4 73 36 -45 45 left 1 5.000000e-01 /Users/lab/Documents/magic3Definitivo/stim/5_effect.mov 528 26-Apr-2017 11:52:22 2.794937e+02 4.368944e+02 1 0
43CP19_F19 4 74 74 45 -45 right 1 5.000000e-01 /Users/lab/Documents/magic3Definitivo/stim/10_effect.mov 693 26-Apr-2017 11:52:25 9.118497e+01 3.511591e+02 1 0
43CP19_F19 4 75 69 45 45 right 1 5.000000e-01 /Users/lab/Documents/magic3Definitivo/stim/9_noeffect.mov 495 26-Apr-2017 11:52:27 1.273474e+02 -9.357038e+01 0 0
43CP19_F19 4 76 57 45 45 right 1 5.000000e-01 /Users/lab/Documents/magic3Definitivo/stim/8_effect.mov 692 26-Apr-2017 11:52:48 4.376990e+02 -1.067592e+02 1 1
43CP19_F19 4 77 61 45 45 right 1 5.000000e-01 /Users/lab/Documents/magic3Definitivo/stim/8_noeffect.mov 449 26-Apr-2017 11:52:51 6.861717e+01 3.087630e+02 0 0
43CP19_F19 4 78 68 -45 -45 left 1 5.000000e-01 /Users/lab/Documents/magic3Definitivo/stim/9_effect.mov 541 26-Apr-2017 11:52:54 1.283616e+02 -9.274726e+01 1 0
43CP19_F19 4 79 26 45 -45 right 1 5.000000e-01 /Users/lab/Documents/magic3Definitivo/stim/4_effect.mov 539 26-Apr-2017 11:52:57 8.997842e+01 -2.725021e+01 1 0
43CP19_F19 4 80 75 -45 45 left 1 5.000000e-01 /Users/lab/Documents/magic3Definitivo/stim/10_effect.mov 689 26-Apr-2017 11:53:00 1.016281e+02 9.735273e+01 1 0
