subject_name subjectNumber iTrial unshuffled_trial targetOrientation flankersOrientation response correct onscreen_stim_duration magicShows rt date time_of_day deltaX deltaY surpriseClip isClipTrial
15DS04_F24 1 1 57 45 45 right 1 5.000000e-01 /Users/lab/Documents/magic3Definitivo/stim/8_effect.mov 863 21-Apr-2017 10:31:36 1.810756e+02 -2.428540e+02 1 1
15DS04_F24 1 2 30 45 -45 right 1 5.000000e-01 /Users/lab/Documents/magic3Definitivo/stim/4_noeffect.mov 729 21-Apr-2017 10:31:39 -1.135354e+02 -2.909142e+02 0 0
15DS04_F24 1 3 45 45 45 right 1 5.000000e-01 /Users/lab/Documents/magic3Definitivo/stim/6_noeffect.mov 695 21-Apr-2017 10:31:42 -2.352120e+02 2.682121e+02 0 0
15DS04_F24 1 4 46 45 -45 right 1 5.000000e-01 /Users/lab/Documents/magic3Definitivo/stim/6_noeffect.mov 859 21-Apr-2017 10:31:57 -1.784713e+02 3.233448e+02 0 1
15DS04_F24 1 5 38 45 -45 right 1 5.000000e-01 /Users/lab/Documents/magic3Definitivo/stim/5_noeffect.mov 561 21-Apr-2017 10:32:00 -7.110345e+01 3.626149e+02 0 0
15DS04_F24 1 6 79 -45 45 left 1 5.000000e-01 /Users/lab/Documents/magic3Definitivo/stim/10_noeffect.mov 761 21-Apr-2017 10:32:03 -3.491328e+02 1.225205e+02 0 0
15DS04_F24 1 7 25 45 45 right 1 5.000000e-01 /Users/lab/Documents/magic3Definitivo/stim/4_effect.mov 610 21-Apr-2017 10:32:06 4.052235e+02 -4.846000e+02 1 0
15DS04_F24 1 8 28 -45 -45 left 1 5.000000e-01 /Users/lab/Documents/magic3Definitivo/stim/4_effect.mov 1093 21-Apr-2017 10:32:24 1.634300e+02 3.965109e+01 1 1
15DS04_F24 1 9 47 -45 45 left 1 5.000000e-01 /Users/lab/Documents/magic3Definitivo/stim/6_noeffect.mov 792 21-Apr-2017 10:32:27 -3.886874e+02 3.181637e+02 0 0
15DS04_F24 1 10 12 -45 -45 left 1 5.000000e-01 /Users/lab/Documents/magic3Definitivo/stim/2_effect.mov 658 21-Apr-2017 10:32:30 -2.720005e+02 -1.171356e+02 1 0
15DS04_F24 1 11 59 -45 45 left 1 5.000000e-01 /Users/lab/Documents/magic3Definitivo/stim/8_effect.mov 606 21-Apr-2017 10:32:33 4.298952e+01 -8.606937e+01 1 0
15DS04_F24 1 12 29 45 45 right 1 5.000000e-01 /Users/lab/Documents/magic3Definitivo/stim/4_noeffect.mov 726 21-Apr-2017 10:32:50 4.207718e+02 3.414988e+02 0 1
15DS04_F24 1 13 77 45 45 right 1 5.000000e-01 /Users/lab/Documents/magic3Definitivo/stim/10_noeffect.mov 624 21-Apr-2017 10:32:53 4.050830e+02 4.171944e+02 0 0
15DS04_F24 1 14 60 -45 -45 left 1 5.000000e-01 /Users/lab/Documents/magic3Definitivo/stim/8_effect.mov 678 21-Apr-2017 10:32:56 3.457572e+02 3.201019e+02 1 0
15DS04_F24 1 15 72 -45 -45 left 1 5.000000e-01 /Users/lab/Documents/magic3Definitivo/stim/9_noeffect.mov 622 21-Apr-2017 10:32:59 3.498958e+02 4.490984e+02 0 0
15DS04_F24 1 16 21 45 45 right 1 5.000000e-01 /Users/lab/Documents/magic3Definitivo/stim/3_noeffect.mov 843 21-Apr-2017 10:33:17 -4.764153e+02 4.932350e+02 0 1
15DS04_F24 1 17 49 45 45 right 1 5.000000e-01 /Users/lab/Documents/magic3Definitivo/stim/7_effect.mov 562 21-Apr-2017 10:33:20 9.200424e+01 7.661524e+01 1 0
15DS04_F24 1 18 58 45 -45 right 1 5.000000e-01 /Users/lab/Documents/magic3Definitivo/stim/8_effect.mov 707 21-Apr-2017 10:33:23 4.020141e+02 -2.502943e+01 1 0
15DS04_F24 1 19 70 45 -45 right 1 5.000000e-01 /Users/lab/Documents/magic3Definitivo/stim/9_noeffect.mov 727 21-Apr-2017 10:33:26 3.946943e+02 2.257347e+02 0 0
15DS04_F24 1 20 39 -45 45 left 1 5.000000e-01 /Users/lab/Documents/magic3Definitivo/stim/5_noeffect.mov 812 21-Apr-2017 10:33:42 4.034444e+02 2.231927e+02 0 1
15DS04_F24 1 21 8 -45 -45 left 1 5.000000e-01 /Users/lab/Documents/magic3Definitivo/stim/1_noeffect.mov 643 21-Apr-2017 10:33:45 3.035405e+02 3.289955e+02 1 0
15DS04_F24 1 22 42 45 -45 right 1 5.000000e-01 /Users/lab/Documents/magic3Definitivo/stim/6_effect.mov 627 21-Apr-2017 10:33:48 4.365574e+02 2.047091e+02 1 0
15DS04_F24 1 23 10 45 -45 right 1 5.000000e-01 /Users/lab/Documents/magic3Definitivo/stim/2_effect.mov 641 21-Apr-2017 10:33:51 4.387523e+02 3.530185e+02 1 0
15DS04_F24 1 24 27 -45 45 left 1 5.000000e-01 /Users/lab/Documents/magic3Definitivo/stim/4_effect.mov 926 21-Apr-2017 10:34:09 -5.175433e+01 4.549878e+02 1 1
15DS04_F24 1 25 67 -45 45 left 1 5.000000e-01 /Users/lab/Documents/magic3Definitivo/stim/9_effect.mov 612 21-Apr-2017 10:34:11 -1.588097e+02 -4.334623e+02 1 0
15DS04_F24 1 26 2 45 -45 right 1 5.000000e-01 /Users/lab/Documents/magic3Definitivo/stim/1_effect.mov 523 21-Apr-2017 10:34:14 -1.915111e+02 -3.184204e+02 1 0
15DS04_F24 1 27 78 45 -45 right 1 5.000000e-01 /Users/lab/Documents/magic3Definitivo/stim/10_noeffect.mov 511 21-Apr-2017 10:34:17 8.409528e+01 -3.293150e+02 0 0
15DS04_F24 1 28 23 -45 45 left 1 5.000000e-01 /Users/lab/Documents/magic3Definitivo/stim/3_noeffect.mov 743 21-Apr-2017 10:34:35 2.952081e+02 -4.897638e+02 0 1
15DS04_F24 1 29 56 -45 -45 left 1 5.000000e-01 /Users/lab/Documents/magic3Definitivo/stim/7_noeffect.mov 544 21-Apr-2017 10:34:38 -8.492368e+01 4.230508e+02 0 0
15DS04_F24 1 30 63 -45 45 left 1 5.000000e-01 /Users/lab/Documents/magic3Definitivo/stim/8_noeffect.mov 662 21-Apr-2017 10:34:41 4.314066e+02 3.841217e+02 0 0
15DS04_F24 1 31 51 -45 45 left 1 5.000000e-01 /Users/lab/Documents/magic3Definitivo/stim/7_effect.mov 578 21-Apr-2017 10:34:44 1.800115e+02 -1.493320e+02 1 0
15DS04_F24 1 32 52 -45 -45 left 1 5.000000e-01 /Users/lab/Documents/magic3Definitivo/stim/7_effect.mov 728 21-Apr-2017 10:35:03 2.502244e+02 -1.036678e+02 1 1
15DS04_F24 1 33 40 -45 -45 left 1 5.000000e-01 /Users/lab/Documents/magic3Definitivo/stim/5_noeffect.mov 558 21-Apr-2017 10:35:06 2.904981e+02 -2.955730e+02 0 0
15DS04_F24 1 34 44 -45 -45 left 1 5.000000e-01 /Users/lab/Documents/magic3Definitivo/stim/6_effect.mov 743 21-Apr-2017 10:35:09 2.550051e+02 -1.300503e+02 1 0
15DS04_F24 1 35 22 45 -45 right 1 5.000000e-01 /Users/lab/Documents/magic3Definitivo/stim/3_noeffect.mov 574 21-Apr-2017 10:35:12 -1.971858e+02 -4.259181e+02 0 0
15DS04_F24 1 36 50 45 -45 right 1 5.000000e-01 /Users/lab/Documents/magic3Definitivo/stim/7_effect.mov 695 21-Apr-2017 10:35:32 4.913560e+02 1.004462e+02 1 1
15DS04_F24 1 37 66 45 -45 right 1 5.000000e-01 /Users/lab/Documents/magic3Definitivo/stim/9_effect.mov 656 21-Apr-2017 10:35:35 -4.965931e+02 4.433715e+02 1 0
15DS04_F24 1 38 19 -45 45 left 1 5.000000e-01 /Users/lab/Documents/magic3Definitivo/stim/3_effect.mov 694 21-Apr-2017 10:35:38 -3.820910e+02 3.515510e+02 1 0
15DS04_F24 1 39 17 45 45 right 1 5.000000e-01 /Users/lab/Documents/magic3Definitivo/stim/3_effect.mov 493 21-Apr-2017 10:35:40 2.358699e+02 8.165825e+01 1 0
15DS04_F24 1 40 24 -45 -45 left 1 5.000000e-01 /Users/lab/Documents/magic3Definitivo/stim/3_noeffect.mov 809 21-Apr-2017 10:35:59 2.960472e+02 3.841862e+02 0 1
15DS04_F24 1 41 16 -45 -45 left 1 5.000000e-01 /Users/lab/Documents/magic3Definitivo/stim/2_noeffect.mov 545 21-Apr-2017 10:36:02 -3.580944e+02 -8.615840e+01 0 0
15DS04_F24 1 42 33 45 45 right 1 5.000000e-01 /Users/lab/Documents/magic3Definitivo/stim/5_effect.mov 495 21-Apr-2017 10:36:04 3.377973e+02 3.290447e+02 1 0
15DS04_F24 1 43 5 45 45 right 1 5.000000e-01 /Users/lab/Documents/magic3Definitivo/stim/1_noeffect.mov 561 21-Apr-2017 10:36:07 -2.230478e+02 -8.584120e+01 1 0
15DS04_F24 1 44 68 -45 -45 left 1 5.000000e-01 /Users/lab/Documents/magic3Definitivo/stim/9_effect.mov 761 21-Apr-2017 10:36:29 -3.624306e+02 -1.506052e+02 1 1
15DS04_F24 1 45 14 45 -45 right 1 5.000000e-01 /Users/lab/Documents/magic3Definitivo/stim/2_noeffect.mov 557 21-Apr-2017 10:36:32 -1.035299e+01 -4.985908e+02 0 0
15DS04_F24 1 46 18 45 -45 right 1 5.000000e-01 /Users/lab/Documents/magic3Definitivo/stim/3_effect.mov 614 21-Apr-2017 10:36:35 -1.648167e+02 4.526465e+02 1 0
15DS04_F24 1 47 69 45 45 right 1 5.000000e-01 /Users/lab/Documents/magic3Definitivo/stim/9_noeffect.mov 658 21-Apr-2017 10:36:38 -4.224336e+02 3.421959e+02 0 0
15DS04_F24 1 48 34 45 -45 right 1 5.000000e-01 /Users/lab/Documents/magic3Definitivo/stim/5_effect.mov 643 21-Apr-2017 10:36:55 1.529929e+02 -3.129269e+02 1 1
15DS04_F24 1 49 9 45 45 right 1 5.000000e-01 /Users/lab/Documents/magic3Definitivo/stim/2_effect.mov 441 21-Apr-2017 10:36:57 -9.240941e+01 -2.269440e+01 1 0
15DS04_F24 1 50 43 -45 45 left 1 5.000000e-01 /Users/lab/Documents/magic3Definitivo/stim/6_effect.mov 571 21-Apr-2017 10:37:00 -1.551637e+02 -2.035196e+02 1 0
15DS04_F24 1 51 71 -45 45 left 1 5.000000e-01 /Users/lab/Documents/magic3Definitivo/stim/9_noeffect.mov 578 21-Apr-2017 10:37:03 3.845950e+01 4.338797e+02 0 0
15DS04_F24 1 52 32 -45 -45 left 1 5.000000e-01 /Users/lab/Documents/magic3Definitivo/stim/4_noeffect.mov 612 21-Apr-2017 10:37:20 -5.308455e+01 1.638692e+02 0 1
15DS04_F24 1 53 15 -45 45 left 1 5.000000e-01 /Users/lab/Documents/magic3Definitivo/stim/2_noeffect.mov 661 21-Apr-2017 10:37:23 -3.412024e+02 5.966909e+01 0 0
15DS04_F24 1 54 76 -45 -45 left 1 5.000000e-01 /Users/lab/Documents/magic3Definitivo/stim/10_effect.mov 610 21-Apr-2017 10:37:26 1.584767e+02 -4.806932e+02 1 0
15DS04_F24 1 55 11 -45 45 left 1 5.000000e-01 /Users/lab/Documents/magic3Definitivo/stim/2_effect.mov 677 21-Apr-2017 10:37:29 2.229352e+02 -1.694434e+02 1 0
15DS04_F24 1 56 31 -45 45 left 1 5.000000e-01 /Users/lab/Documents/magic3Definitivo/stim/4_noeffect.mov 709 21-Apr-2017 10:37:46 2.268306e+02 6.499894e+01 0 1
15DS04_F24 1 57 1 45 45 right 1 5.000000e-01 /Users/lab/Documents/magic3Definitivo/stim/1_effect.mov 460 21-Apr-2017 10:37:49 -5.010924e+00 8.699226e+01 1 0
15DS04_F24 1 58 61 45 45 right 1 5.000000e-01 /Users/lab/Documents/magic3Definitivo/stim/8_noeffect.mov 674 21-Apr-2017 10:37:52 -3.886358e+02 -1.294431e+02 0 0
15DS04_F24 1 59 54 45 -45 right 1 5.000000e-01 /Users/lab/Documents/magic3Definitivo/stim/7_noeffect.mov 723 21-Apr-2017 10:37:55 -3.207888e+02 2.987290e+02 0 0
15DS04_F24 1 60 73 45 45 right 1 5.000000e-01 /Users/lab/Documents/magic3Definitivo/stim/10_effect.mov 777 21-Apr-2017 10:38:10 -2.304820e+02 3.697984e+02 1 1
15DS04_F24 1 61 55 -45 45 left 1 5.000000e-01 /Users/lab/Documents/magic3Definitivo/stim/7_noeffect.mov 540 21-Apr-2017 10:38:13 -1.994929e+01 1.654179e+02 0 0
15DS04_F24 1 62 37 45 45 right 1 5.000000e-01 /Users/lab/Documents/magic3Definitivo/stim/5_noeffect.mov 450 21-Apr-2017 10:38:15 -1.151985e+02 1.534540e+02 0 0
15DS04_F24 1 63 36 -45 -45 left 1 5.000000e-01 /Users/lab/Documents/magic3Definitivo/stim/5_effect.mov 511 21-Apr-2017 10:38:18 2.109187e+01 -5.070741e+01 1 0
15DS04_F24 1 64 75 -45 45 left 1 5.000000e-01 /Users/lab/Documents/magic3Definitivo/stim/10_effect.mov 692 21-Apr-2017 10:38:33 1.657418e+02 2.675595e+02 1 1
15DS04_F24 1 65 3 -45 45 left 1 5.000000e-01 /Users/lab/Documents/magic3Definitivo/stim/1_effect.mov 576 21-Apr-2017 10:38:36 -1.852190e+02 -3.017722e+02 1 0
15DS04_F24 1 66 7 -45 45 left 1 5.000000e-01 /Users/lab/Documents/magic3Definitivo/stim/1_noeffect.mov 661 21-Apr-2017 10:38:39 4.185570e+02 2.823278e+02 1 0
15DS04_F24 1 67 6 45 -45 right 1 5.000000e-01 /Users/lab/Documents/magic3Definitivo/stim/1_noeffect.mov 578 21-Apr-2017 10:38:42 -1.779062e+02 1.401836e+02 1 0
15DS04_F24 1 68 65 45 45 right 1 5.000000e-01 /Users/lab/Documents/magic3Definitivo/stim/9_effect.mov 727 21-Apr-2017 10:39:03 -1.337045e+02 3.048656e+02 1 1
15DS04_F24 1 69 26 45 -45 right 1 5.000000e-01 /Users/lab/Documents/magic3Definitivo/stim/4_effect.mov 707 21-Apr-2017 10:39:06 4.510883e+02 2.177696e+02 1 0
15DS04_F24 1 70 48 -45 -45 left 1 5.000000e-01 /Users/lab/Documents/magic3Definitivo/stim/6_noeffect.mov 757 21-Apr-2017 10:39:09 3.827650e+02 -5.130232e+01 0 0
15DS04_F24 1 71 4 -45 -45 left 1 5.000000e-01 /Users/lab/Documents/magic3Definitivo/stim/1_effect.mov 557 21-Apr-2017 10:39:12 4.059473e+02 -2.867787e+02 1 0
15DS04_F24 1 72 62 45 -45 right 1 5.000000e-01 /Users/lab/Documents/magic3Definitivo/stim/8_noeffect.mov 809 21-Apr-2017 10:39:33 -1.899932e+02 3.336261e+02 0 1
15DS04_F24 1 73 64 -45 -45 left 1 5.000000e-01 /Users/lab/Documents/magic3Definitivo/stim/8_noeffect.mov 595 21-Apr-2017 10:39:36 2.803121e+00 4.665051e+02 0 0
15DS04_F24 1 74 74 45 -45 right 1 5.000000e-01 /Users/lab/Documents/magic3Definitivo/stim/10_effect.mov 629 21-Apr-2017 10:39:39 4.512547e+02 -7.538304e+01 1 0
15DS04_F24 1 75 13 45 45 right 1 5.000000e-01 /Users/lab/Documents/magic3Definitivo/stim/2_noeffect.mov 561 21-Apr-2017 10:39:42 2.205109e+02 -3.210067e+02 0 0
15DS04_F24 1 76 41 45 45 right 1 5.000000e-01 /Users/lab/Documents/magic3Definitivo/stim/6_effect.mov 693 21-Apr-2017 10:39:57 -6.745346e+00 -2.137888e+02 1 1
15DS04_F24 1 77 36 -45 45 left 1 5.000000e-01 /Users/lab/Documents/magic3Definitivo/stim/5_effect.mov 561 21-Apr-2017 10:40:00 -2.626385e+02 -1.091422e+02 1 0
15DS04_F24 1 78 80 -45 -45 left 1 5.000000e-01 /Users/lab/Documents/magic3Definitivo/stim/10_noeffect.mov 645 21-Apr-2017 10:40:03 2.308557e+02 -9.390287e+01 0 0
15DS04_F24 1 79 53 45 45 right 1 5.000000e-01 /Users/lab/Documents/magic3Definitivo/stim/7_noeffect.mov 544 21-Apr-2017 10:40:06 3.748811e+02 -4.881097e+02 0 0
15DS04_F24 1 80 20 -45 -45 left 1 5.000000e-01 /Users/lab/Documents/magic3Definitivo/stim/3_effect.mov 611 21-Apr-2017 10:40:09 4.122139e+02 2.310162e+02 1 0
