subject_name subjectNumber iTrial unshuffled_trial targetOrientation flankersOrientation response correct onscreen_stim_duration magicShows rt date time_of_day deltaX deltaY surpriseClip isClipTrial
43CP19_F19 3 1 40 -45 -45 left 1 5.000000e-01 /Users/lab/Documents/magic3Definitivo/stim/5_noeffect.mov 711 26-Apr-2017 11:33:26 -1.546025e+02 -5.619600e+01 0 1
43CP19_F19 3 2 41 45 45 right 1 5.000000e-01 /Users/lab/Documents/magic3Definitivo/stim/6_effect.mov 512 26-Apr-2017 11:33:29 -2.149361e+01 -1.133998e+02 1 0
43CP19_F19 3 3 52 -45 -45 left 1 5.000000e-01 /Users/lab/Documents/magic3Definitivo/stim/7_effect.mov 527 26-Apr-2017 11:33:31 3.617193e+02 -1.302416e+02 1 0
43CP19_F19 3 4 60 -45 -45 left 1 5.000000e-01 /Users/lab/Documents/magic3Definitivo/stim/8_effect.mov 760 26-Apr-2017 11:33:53 1.035220e+02 -1.064294e+02 1 1
43CP19_F19 3 5 58 45 -45 right 1 5.000000e-01 /Users/lab/Documents/magic3Definitivo/stim/8_effect.mov 977 26-Apr-2017 11:33:56 -9.316149e+01 -1.848625e+02 1 0
43CP19_F19 3 6 16 -45 -45 left 1 5.000000e-01 /Users/lab/Documents/magic3Definitivo/stim/2_noeffect.mov 526 26-Apr-2017 11:33:59 2.105053e+01 -4.443015e+02 0 0
43CP19_F19 3 7 19 -45 45 left 1 5.000000e-01 /Users/lab/Documents/magic3Definitivo/stim/3_effect.mov 642 26-Apr-2017 11:34:02 1.428040e+02 2.872857e+02 1 0
43CP19_F19 3 8 63 -45 45 left 1 5.000000e-01 /Users/lab/Documents/magic3Definitivo/stim/8_noeffect.mov 593 26-Apr-2017 11:34:23 -1.259598e+02 -4.745094e+02 0 1
43CP19_F19 3 9 43 -45 45 left 1 5.000000e-01 /Users/lab/Documents/magic3Definitivo/stim/6_effect.mov 690 26-Apr-2017 11:34:26 3.607912e+02 -4.803642e+02 1 0
43CP19_F19 3 10 74 45 -45 right 1 5.000000e-01 /Users/lab/Documents/magic3Definitivo/stim/10_effect.mov 672 26-Apr-2017 11:34:29 -2.262499e+02 9.115702e+01 1 0
43CP19_F19 3 11 31 -45 45 left 1 5.000000e-01 /Users/lab/Documents/magic3Definitivo/stim/4_noeffect.mov 673 26-Apr-2017 11:34:32 -2.950876e+02 3.816381e+02 0 0
43CP19_F19 3 12 3 -45 45 left 1 5.000000e-01 /Users/lab/Documents/magic3Definitivo/stim/1_effect.mov 676 26-Apr-2017 11:34:57 -1.633001e+02 -4.100672e+02 1 1
43CP19_F19 3 13 53 45 45 right 1 5.000000e-01 /Users/lab/Documents/magic3Definitivo/stim/7_noeffect.mov 513 26-Apr-2017 11:35:00 -4.071154e+02 -2.422824e+02 0 0
43CP19_F19 3 14 69 45 45 right 1 5.000000e-01 /Users/lab/Documents/magic3Definitivo/stim/9_noeffect.mov 677 26-Apr-2017 11:35:03 1.543801e+02 4.803175e+02 0 0
43CP19_F19 3 15 57 45 45 right 1 5.000000e-01 /Users/lab/Documents/magic3Definitivo/stim/8_effect.mov 406 26-Apr-2017 11:35:05 -2.015505e+02 1.143849e+02 1 0
43CP19_F19 3 16 36 -45 -45 left 1 5.000000e-01 /Users/lab/Documents/magic3Definitivo/stim/5_effect.mov 541 26-Apr-2017 11:35:22 -4.546055e+02 -3.310989e+02 1 1
43CP19_F19 3 17 39 -45 45 left 1 5.000000e-01 /Users/lab/Documents/magic3Definitivo/stim/5_noeffect.mov 708 26-Apr-2017 11:35:25 4.863594e+02 4.114834e+02 0 0
43CP19_F19 3 18 36 -45 45 left 1 5.000000e-01 /Users/lab/Documents/magic3Definitivo/stim/5_effect.mov 807 26-Apr-2017 11:35:29 4.733865e+02 3.457628e+02 1 0
43CP19_F19 3 19 79 -45 45 left 1 5.000000e-01 /Users/lab/Documents/magic3Definitivo/stim/10_noeffect.mov 458 26-Apr-2017 11:35:31 2.582189e+02 3.813670e+02 0 0
43CP19_F19 3 20 2 45 -45 right 1 5.000000e-01 /Users/lab/Documents/magic3Definitivo/stim/1_effect.mov 825 26-Apr-2017 11:35:56 2.909363e+02 -2.602314e+02 1 1
43CP19_F19 3 21 37 45 45 right 1 5.000000e-01 /Users/lab/Documents/magic3Definitivo/stim/5_noeffect.mov 678 26-Apr-2017 11:35:59 -1.650446e+01 -3.926183e+01 0 0
43CP19_F19 3 22 78 45 -45 right 1 5.000000e-01 /Users/lab/Documents/magic3Definitivo/stim/10_noeffect.mov 711 26-Apr-2017 11:36:02 -4.940431e+02 2.205356e+02 0 0
43CP19_F19 3 23 72 -45 -45 right 0 5.000000e-01 /Users/lab/Documents/magic3Definitivo/stim/9_noeffect.mov 529 26-Apr-2017 11:36:05 2.397163e+02 4.784170e+02 0 0
43CP19_F19 3 24 1 45 45 right 1 5.000000e-01 /Users/lab/Documents/magic3Definitivo/stim/1_effect.mov 843 26-Apr-2017 11:36:30 -3.819993e+02 2.371074e+02 1 1
43CP19_F19 3 25 5 45 45 right 1 5.000000e-01 /Users/lab/Documents/magic3Definitivo/stim/1_noeffect.mov 644 26-Apr-2017 11:36:33 -4.345043e+02 -6.773912e+01 1 0
43CP19_F19 3 26 49 45 45 right 1 5.000000e-01 /Users/lab/Documents/magic3Definitivo/stim/7_effect.mov 626 26-Apr-2017 11:36:36 -1.970568e+02 -4.748533e+02 1 0
43CP19_F19 3 27 48 -45 -45 left 1 5.000000e-01 /Users/lab/Documents/magic3Definitivo/stim/6_noeffect.mov 675 26-Apr-2017 11:36:39 -4.951615e+02 3.981726e+02 0 0
43CP19_F19 3 28 38 45 -45 right 1 5.000000e-01 /Users/lab/Documents/magic3Definitivo/stim/5_noeffect.mov 711 26-Apr-2017 11:36:56 -2.342657e+01 -2.625762e+02 0 1
43CP19_F19 3 29 71 -45 45 left 1 5.000000e-01 /Users/lab/Documents/magic3Definitivo/stim/9_noeffect.mov 623 26-Apr-2017 11:36:59 -3.236314e+02 1.009263e+02 0 0
43CP19_F19 3 30 46 45 -45 right 1 5.000000e-01 /Users/lab/Documents/magic3Definitivo/stim/6_noeffect.mov 723 26-Apr-2017 11:37:02 6.835934e+01 2.978502e+01 0 0
43CP19_F19 3 31 47 -45 45 left 1 5.000000e-01 /Users/lab/Documents/magic3Definitivo/stim/6_noeffect.mov 612 26-Apr-2017 11:37:05 -3.312088e+02 -9.815393e+01 0 0
43CP19_F19 3 32 33 45 45 right 1 5.000000e-01 /Users/lab/Documents/magic3Definitivo/stim/5_effect.mov 809 26-Apr-2017 11:37:22 4.153972e+02 -2.388828e+02 1 1
43CP19_F19 3 33 34 45 -45 right 1 5.000000e-01 /Users/lab/Documents/magic3Definitivo/stim/5_effect.mov 744 26-Apr-2017 11:37:25 -2.292464e+02 -2.991884e+02 1 0
43CP19_F19 3 34 51 -45 45 left 1 5.000000e-01 /Users/lab/Documents/magic3Definitivo/stim/7_effect.mov 528 26-Apr-2017 11:37:28 -2.861237e+02 6.723123e+01 1 0
43CP19_F19 3 35 11 -45 45 right 0 5.000000e-01 /Users/lab/Documents/magic3Definitivo/stim/2_effect.mov 544 26-Apr-2017 11:37:31 1.525566e+02 1.106508e+02 1 0
43CP19_F19 3 36 8 -45 -45 left 1 5.000000e-01 /Users/lab/Documents/magic3Definitivo/stim/1_noeffect.mov 644 26-Apr-2017 11:37:56 -1.368570e+02 1.561387e+01 1 1
43CP19_F19 3 37 76 -45 -45 left 1 5.000000e-01 /Users/lab/Documents/magic3Definitivo/stim/10_effect.mov 775 26-Apr-2017 11:37:59 3.188893e+01 -1.098391e+02 1 0
43CP19_F19 3 38 10 45 -45 right 1 5.000000e-01 /Users/lab/Documents/magic3Definitivo/stim/2_effect.mov 859 26-Apr-2017 11:38:02 -2.696426e+02 -1.792697e+02 1 0
43CP19_F19 3 39 45 45 45 right 1 5.000000e-01 /Users/lab/Documents/magic3Definitivo/stim/6_noeffect.mov 741 26-Apr-2017 11:38:05 3.188137e+02 3.371627e+02 0 0
43CP19_F19 3 40 28 -45 -45 left 1 5.000000e-01 /Users/lab/Documents/magic3Definitivo/stim/4_effect.mov 677 26-Apr-2017 11:38:22 -2.779740e+02 4.640017e+02 1 1
43CP19_F19 3 41 23 -45 45 left 1 5.000000e-01 /Users/lab/Documents/magic3Definitivo/stim/3_noeffect.mov 573 26-Apr-2017 11:38:25 -4.151725e+02 -1.720157e+01 0 0
43CP19_F19 3 42 6 45 -45 right 1 5.000000e-01 /Users/lab/Documents/magic3Definitivo/stim/1_noeffect.mov 855 26-Apr-2017 11:38:28 -4.373146e+02 4.813866e+02 1 0
43CP19_F19 3 43 9 45 45 right 1 5.000000e-01 /Users/lab/Documents/magic3Definitivo/stim/2_effect.mov 629 26-Apr-2017 11:38:31 3.664664e+01 3.414055e+02 1 0
43CP19_F19 3 44 67 -45 45 left 1 5.000000e-01 /Users/lab/Documents/magic3Definitivo/stim/9_effect.mov 661 26-Apr-2017 11:38:53 2.559182e+01 -4.335201e+02 1 1
43CP19_F19 3 45 50 45 -45 right 1 5.000000e-01 /Users/lab/Documents/magic3Definitivo/stim/7_effect.mov 612 26-Apr-2017 11:38:56 3.639756e+02 4.331624e+02 1 0
43CP19_F19 3 46 13 45 45 right 1 5.000000e-01 /Users/lab/Documents/magic3Definitivo/stim/2_noeffect.mov 612 26-Apr-2017 11:38:59 2.381821e+02 -5.687870e+01 0 0
43CP19_F19 3 47 62 45 -45 right 1 5.000000e-01 /Users/lab/Documents/magic3Definitivo/stim/8_noeffect.mov 609 26-Apr-2017 11:39:02 3.981198e+02 -4.102442e+02 0 0
43CP19_F19 3 48 18 45 -45 right 1 5.000000e-01 /Users/lab/Documents/magic3Definitivo/stim/3_effect.mov 875 26-Apr-2017 11:39:20 -8.237856e+01 2.397542e+01 1 1
43CP19_F19 3 49 75 -45 45 left 1 5.000000e-01 /Users/lab/Documents/magic3Definitivo/stim/10_effect.mov 577 26-Apr-2017 11:39:23 -2.023484e+02 -3.342989e+02 1 0
43CP19_F19 3 50 59 -45 45 left 1 5.000000e-01 /Users/lab/Documents/magic3Definitivo/stim/8_effect.mov 726 26-Apr-2017 11:39:26 2.063034e+02 3.641160e+02 1 0
43CP19_F19 3 51 29 45 45 right 1 5.000000e-01 /Users/lab/Documents/magic3Definitivo/stim/4_noeffect.mov 674 26-Apr-2017 11:39:29 -3.097154e+02 3.771206e+01 0 0
43CP19_F19 3 52 64 -45 -45 left 1 5.000000e-01 /Users/lab/Documents/magic3Definitivo/stim/8_noeffect.mov 643 26-Apr-2017 11:39:50 4.567748e+02 -1.969055e+02 0 1
43CP19_F19 3 53 73 45 45 right 1 5.000000e-01 /Users/lab/Documents/magic3Definitivo/stim/10_effect.mov 638 26-Apr-2017 11:39:53 -3.074961e+02 2.771398e+02 1 0
43CP19_F19 3 54 70 45 -45 right 1 5.000000e-01 /Users/lab/Documents/magic3Definitivo/stim/9_noeffect.mov 612 26-Apr-2017 11:39:56 -1.441095e+02 2.816006e+02 0 0
43CP19_F19 3 55 68 -45 -45 left 1 5.000000e-01 /Users/lab/Documents/magic3Definitivo/stim/9_effect.mov 695 26-Apr-2017 11:39:59 -3.837253e+02 -3.751243e+02 1 0
43CP19_F19 3 56 55 -45 45 left 1 5.000000e-01 /Users/lab/Documents/magic3Definitivo/stim/7_noeffect.mov 778 26-Apr-2017 11:40:18 2.820935e+02 4.011573e+02 0 1
43CP19_F19 3 57 32 -45 -45 left 1 5.000000e-01 /Users/lab/Documents/magic3Definitivo/stim/4_noeffect.mov 594 26-Apr-2017 11:40:21 2.879460e+02 -3.373449e+02 0 0
43CP19_F19 3 58 7 -45 45 left 1 5.000000e-01 /Users/lab/Documents/magic3Definitivo/stim/1_noeffect.mov 492 26-Apr-2017 11:40:24 -3.324310e+01 3.572000e+02 1 0
43CP19_F19 3 59 15 -45 45 left 1 5.000000e-01 /Users/lab/Documents/magic3Definitivo/stim/2_noeffect.mov 676 26-Apr-2017 11:40:27 -3.659028e+02 -3.005436e+02 0 0
43CP19_F19 3 60 27 -45 45 left 1 5.000000e-01 /Users/lab/Documents/magic3Definitivo/stim/4_effect.mov 892 26-Apr-2017 11:40:44 4.911260e+02 4.377779e+02 1 1
43CP19_F19 3 61 4 -45 -45 left 1 5.000000e-01 /Users/lab/Documents/magic3Definitivo/stim/1_effect.mov 557 26-Apr-2017 11:40:47 2.938474e+02 1.550838e+02 1 0
43CP19_F19 3 62 77 45 45 right 1 5.000000e-01 /Users/lab/Documents/magic3Definitivo/stim/10_noeffect.mov 744 26-Apr-2017 11:40:50 -3.919013e+02 -1.929193e+02 0 0
43CP19_F19 3 63 65 45 45 right 1 5.000000e-01 /Users/lab/Documents/magic3Definitivo/stim/9_effect.mov 564 26-Apr-2017 11:40:53 -1.985801e+02 -7.393577e+00 1 0
43CP19_F19 3 64 24 -45 -45 left 1 5.000000e-01 /Users/lab/Documents/magic3Definitivo/stim/3_noeffect.mov 627 26-Apr-2017 11:41:12 2.186053e+02 2.416433e+02 0 1
43CP19_F19 3 65 80 -45 -45 left 1 5.000000e-01 /Users/lab/Documents/magic3Definitivo/stim/10_noeffect.mov 661 26-Apr-2017 11:41:15 -1.699397e+01 2.026829e+02 0 0
43CP19_F19 3 66 14 45 -45 right 1 5.000000e-01 /Users/lab/Documents/magic3Definitivo/stim/2_noeffect.mov 627 26-Apr-2017 11:41:18 -6.094740e+01 3.161515e+02 0 0
43CP19_F19 3 67 30 45 -45 right 1 5.000000e-01 /Users/lab/Documents/magic3Definitivo/stim/4_noeffect.mov 628 26-Apr-2017 11:41:21 2.074052e+02 -1.752543e+02 0 0
43CP19_F19 3 68 61 45 45 right 1 5.000000e-01 /Users/lab/Documents/magic3Definitivo/stim/8_noeffect.mov 575 26-Apr-2017 11:41:41 -3.166706e+02 -2.201147e+02 0 1
43CP19_F19 3 69 44 -45 -45 left 1 5.000000e-01 /Users/lab/Documents/magic3Definitivo/stim/6_effect.mov 527 26-Apr-2017 11:41:44 -1.068860e+01 -5.943703e+01 1 0
43CP19_F19 3 70 21 45 45 right 1 5.000000e-01 /Users/lab/Documents/magic3Definitivo/stim/3_noeffect.mov 560 26-Apr-2017 11:41:47 -4.295380e+02 -3.970008e+02 0 0
43CP19_F19 3 71 56 -45 -45 left 1 5.000000e-01 /Users/lab/Documents/magic3Definitivo/stim/7_noeffect.mov 593 26-Apr-2017 11:41:50 -1.585428e+02 -2.857599e+02 0 0
43CP19_F19 3 72 54 45 -45 right 1 5.000000e-01 /Users/lab/Documents/magic3Definitivo/stim/7_noeffect.mov 626 26-Apr-2017 11:42:09 1.717788e+02 5.768155e+01 0 1
43CP19_F19 3 73 25 45 45 right 1 5.000000e-01 /Users/lab/Documents/magic3Definitivo/stim/4_effect.mov 496 26-Apr-2017 11:42:12 1.536883e+02 -8.402116e+01 1 0
43CP19_F19 3 74 26 45 -45 right 1 5.000000e-01 /Users/lab/Documents/magic3Definitivo/stim/4_effect.mov 608 26-Apr-2017 11:42:15 -1.135996e+01 -4.187937e+01 1 0
43CP19_F19 3 75 17 45 45 right 1 5.000000e-01 /Users/lab/Documents/magic3Definitivo/stim/3_effect.mov 426 26-Apr-2017 11:42:18 7.941181e+00 -1.630400e+02 1 0
43CP19_F19 3 76 20 -45 -45 right 0 5.000000e-01 /Users/lab/Documents/magic3Definitivo/stim/3_effect.mov 628 26-Apr-2017 11:42:36 6.696768e+01 2.364386e+02 1 1
43CP19_F19 3 77 42 45 -45 right 1 5.000000e-01 /Users/lab/Documents/magic3Definitivo/stim/6_effect.mov 1445 26-Apr-2017 11:42:39 4.189060e+02 -2.360051e+02 1 0
43CP19_F19 3 78 22 45 -45 right 1 5.000000e-01 /Users/lab/Documents/magic3Definitivo/stim/3_noeffect.mov 662 26-Apr-2017 11:42:42 3.330322e+02 -2.794318e+02 0 0
43CP19_F19 3 79 66 45 -45 right 1 5.000000e-01 /Users/lab/Documents/magic3Definitivo/stim/9_effect.mov 615 26-Apr-2017 11:42:45 -3.071462e+02 3.634096e+02 1 0
43CP19_F19 3 80 12 -45 -45 left 1 5.000000e-01 /Users/lab/Documents/magic3Definitivo/stim/2_effect.mov 609 26-Apr-2017 11:42:48 -2.107279e+02 -2.276266e+02 1 0
