subject_name subjectNumber iTrial unshuffled_trial targetOrientation flankersOrientation response correct onscreen_stim_duration magicShows rt date time_of_day deltaX deltaY surpriseClip isClipTrial
89MP19_F20 4 1 44 -45 -45 left 1 5.000000e-01 /Users/lab/Documents/magic3Definitivo/stim/6_effect.mov 639 04-May-2017 12:36:43 4.470458e+02 1.322932e+02 1 1
89MP19_F20 4 2 23 -45 45 left 1 5.000000e-01 /Users/lab/Documents/magic3Definitivo/stim/3_noeffect.mov 475 04-May-2017 12:36:46 2.771603e+02 -1.073676e+02 0 0
89MP19_F20 4 3 24 -45 -45 left 1 5.000000e-01 /Users/lab/Documents/magic3Definitivo/stim/3_noeffect.mov 413 04-May-2017 12:36:49 3.530053e+02 3.412211e+02 0 0
89MP19_F20 4 4 46 45 -45 right 1 5.000000e-01 /Users/lab/Documents/magic3Definitivo/stim/6_noeffect.mov 546 04-May-2017 12:37:04 -4.311110e+02 2.006316e+02 0 1
89MP19_F20 4 5 21 45 45 right 1 5.000000e-01 /Users/lab/Documents/magic3Definitivo/stim/3_noeffect.mov 511 04-May-2017 12:37:07 -2.679692e+02 -1.683081e+02 0 0
89MP19_F20 4 6 16 -45 -45 left 1 5.000000e-01 /Users/lab/Documents/magic3Definitivo/stim/2_noeffect.mov 400 04-May-2017 12:37:10 -6.125501e+01 2.220934e+01 0 0
89MP19_F20 4 7 19 -45 45 left 1 5.000000e-01 /Users/lab/Documents/magic3Definitivo/stim/3_effect.mov 455 04-May-2017 12:37:12 1.061014e+01 -4.039068e+02 1 0
89MP19_F20 4 8 15 -45 45 left 1 5.000000e-01 /Users/lab/Documents/magic3Definitivo/stim/2_noeffect.mov 511 04-May-2017 12:37:37 -3.820661e+02 4.077553e+02 0 1
89MP19_F20 4 9 75 -45 45 left 1 5.000000e-01 /Users/lab/Documents/magic3Definitivo/stim/10_effect.mov 491 04-May-2017 12:37:40 -1.244078e+02 8.346619e+01 1 0
89MP19_F20 4 10 34 45 -45 right 1 5.000000e-01 /Users/lab/Documents/magic3Definitivo/stim/5_effect.mov 545 04-May-2017 12:37:43 9.227885e+01 -1.003285e+02 1 0
89MP19_F20 4 11 36 -45 45 right 0 5.000000e-01 /Users/lab/Documents/magic3Definitivo/stim/5_effect.mov 426 04-May-2017 12:37:46 -1.781038e+02 -2.148966e+02 1 0
89MP19_F20 4 12 56 -45 -45 left 1 5.000000e-01 /Users/lab/Documents/magic3Definitivo/stim/7_noeffect.mov 493 04-May-2017 12:38:05 -4.115786e+01 -3.960237e+02 0 1
89MP19_F20 4 13 12 -45 -45 left 1 5.000000e-01 /Users/lab/Documents/magic3Definitivo/stim/2_effect.mov 479 04-May-2017 12:38:07 2.024724e+02 4.133480e+02 1 0
89MP19_F20 4 14 65 45 45 left 0 5.000000e-01 /Users/lab/Documents/magic3Definitivo/stim/9_effect.mov 578 04-May-2017 12:38:10 -3.026403e+02 -4.285716e+02 1 0
89MP19_F20 4 15 14 45 -45 right 1 5.000000e-01 /Users/lab/Documents/magic3Definitivo/stim/2_noeffect.mov 589 04-May-2017 12:38:13 -1.570860e+02 -4.778607e+02 0 0
89MP19_F20 4 16 18 45 -45 right 1 5.000000e-01 /Users/lab/Documents/magic3Definitivo/stim/3_effect.mov 644 04-May-2017 12:38:32 -3.350280e+02 5.162150e+01 1 1
89MP19_F20 4 17 79 -45 45 left 1 5.000000e-01 /Users/lab/Documents/magic3Definitivo/stim/10_noeffect.mov 546 04-May-2017 12:38:35 1.054154e+01 -1.312636e+02 0 0
89MP19_F20 4 18 9 45 45 right 1 5.000000e-01 /Users/lab/Documents/magic3Definitivo/stim/2_effect.mov 629 04-May-2017 12:38:38 -2.079473e+02 4.338194e+02 1 0
89MP19_F20 4 19 76 -45 -45 left 1 5.000000e-01 /Users/lab/Documents/magic3Definitivo/stim/10_effect.mov 372 04-May-2017 12:38:40 -4.512890e+02 -4.215136e+01 1 0
89MP19_F20 4 20 25 45 45 left 0 5.000000e-01 /Users/lab/Documents/magic3Definitivo/stim/4_effect.mov 492 04-May-2017 12:38:57 -1.553188e+02 -1.094702e+02 1 1
89MP19_F20 4 21 49 45 45 right 1 5.000000e-01 /Users/lab/Documents/magic3Definitivo/stim/7_effect.mov 499 04-May-2017 12:39:00 -8.615945e+01 2.987968e+02 1 0
89MP19_F20 4 22 70 45 -45 left 0 5.000000e-01 /Users/lab/Documents/magic3Definitivo/stim/9_noeffect.mov 374 04-May-2017 12:39:03 -3.506780e+02 -1.525815e+02 0 0
89MP19_F20 4 23 7 -45 45 left 1 5.000000e-01 /Users/lab/Documents/magic3Definitivo/stim/1_noeffect.mov 679 04-May-2017 12:39:06 3.329538e+02 8.966517e+01 1 0
89MP19_F20 4 24 20 -45 -45 left 1 5.000000e-01 /Users/lab/Documents/magic3Definitivo/stim/3_effect.mov 545 04-May-2017 12:39:24 -4.190552e+02 -2.081764e+02 1 1
89MP19_F20 4 25 78 45 -45 right 1 5.000000e-01 /Users/lab/Documents/magic3Definitivo/stim/10_noeffect.mov 410 04-May-2017 12:39:27 7.062974e+01 -3.123508e+02 0 0
89MP19_F20 4 26 10 45 -45 right 1 5.000000e-01 /Users/lab/Documents/magic3Definitivo/stim/2_effect.mov 490 04-May-2017 12:39:30 -1.843521e+02 2.045044e+02 1 0
89MP19_F20 4 27 22 45 -45 right 1 5.000000e-01 /Users/lab/Documents/magic3Definitivo/stim/3_noeffect.mov 414 04-May-2017 12:39:33 -1.160532e+02 9.006690e+01 0 0
89MP19_F20 4 28 1 45 45 right 1 5.000000e-01 /Users/lab/Documents/magic3Definitivo/stim/1_effect.mov 578 04-May-2017 12:39:58 -3.828154e+02 4.071453e+02 1 1
89MP19_F20 4 29 43 -45 45 left 1 5.000000e-01 /Users/lab/Documents/magic3Definitivo/stim/6_effect.mov 512 04-May-2017 12:40:01 4.156077e+02 1.470166e+02 1 0
89MP19_F20 4 30 72 -45 -45 left 1 5.000000e-01 /Users/lab/Documents/magic3Definitivo/stim/9_noeffect.mov 745 04-May-2017 12:40:04 -1.931793e+02 3.733536e+02 0 0
89MP19_F20 4 31 73 45 45 right 1 5.000000e-01 /Users/lab/Documents/magic3Definitivo/stim/10_effect.mov 403 04-May-2017 12:40:06 -8.894861e+01 3.437994e+02 1 0
89MP19_F20 4 32 6 45 -45 right 1 5.000000e-01 /Users/lab/Documents/magic3Definitivo/stim/1_noeffect.mov 528 04-May-2017 12:40:31 -1.038128e+02 3.191992e+02 1 1
89MP19_F20 4 33 31 -45 45 left 1 5.000000e-01 /Users/lab/Documents/magic3Definitivo/stim/4_noeffect.mov 484 04-May-2017 12:40:34 2.115473e+02 -1.941797e+02 0 0
89MP19_F20 4 34 69 45 45 right 1 5.000000e-01 /Users/lab/Documents/magic3Definitivo/stim/9_noeffect.mov 400 04-May-2017 12:40:37 4.653074e+02 4.455048e+02 0 0
89MP19_F20 4 35 61 45 45 left 0 5.000000e-01 /Users/lab/Documents/magic3Definitivo/stim/8_noeffect.mov 628 04-May-2017 12:40:40 -4.587901e+02 -2.161159e+02 0 0
89MP19_F20 4 36 42 45 -45 right 1 5.000000e-01 /Users/lab/Documents/magic3Definitivo/stim/6_effect.mov 609 04-May-2017 12:40:55 -4.882209e+02 2.168344e+02 1 1
89MP19_F20 4 37 11 -45 45 left 1 5.000000e-01 /Users/lab/Documents/magic3Definitivo/stim/2_effect.mov 555 04-May-2017 12:40:58 4.744433e+01 3.234498e+02 1 0
89MP19_F20 4 38 62 45 -45 right 1 5.000000e-01 /Users/lab/Documents/magic3Definitivo/stim/8_noeffect.mov 420 04-May-2017 12:41:01 -4.880978e+02 -4.659330e+02 0 0
89MP19_F20 4 39 67 -45 45 left 1 5.000000e-01 /Users/lab/Documents/magic3Definitivo/stim/9_effect.mov 545 04-May-2017 12:41:04 2.032546e+02 -3.798457e+02 1 0
89MP19_F20 4 40 29 45 45 right 1 5.000000e-01 /Users/lab/Documents/magic3Definitivo/stim/4_noeffect.mov 542 04-May-2017 12:41:21 -3.987782e+02 -2.804755e+02 0 1
89MP19_F20 4 41 74 45 -45 right 1 5.000000e-01 /Users/lab/Documents/magic3Definitivo/stim/10_effect.mov 577 04-May-2017 12:41:24 -2.049168e+02 -3.068504e+02 1 0
89MP19_F20 4 42 32 -45 -45 left 1 5.000000e-01 /Users/lab/Documents/magic3Definitivo/stim/4_noeffect.mov 440 04-May-2017 12:41:26 -4.628737e+02 2.702297e+02 0 0
89MP19_F20 4 43 38 45 -45 right 1 5.000000e-01 /Users/lab/Documents/magic3Definitivo/stim/5_noeffect.mov 543 04-May-2017 12:41:29 -4.595976e+02 -3.605267e+02 0 0
89MP19_F20 4 44 54 45 -45 right 1 5.000000e-01 /Users/lab/Documents/magic3Definitivo/stim/7_noeffect.mov 482 04-May-2017 12:41:48 -1.841243e+02 1.374753e+02 0 1
89MP19_F20 4 45 50 45 -45 right 1 5.000000e-01 /Users/lab/Documents/magic3Definitivo/stim/7_effect.mov 527 04-May-2017 12:41:51 -4.362285e+02 3.133162e+02 1 0
89MP19_F20 4 46 55 -45 45 right 0 5.000000e-01 /Users/lab/Documents/magic3Definitivo/stim/7_noeffect.mov 398 04-May-2017 12:41:54 -1.712191e+02 -2.981993e+02 0 0
89MP19_F20 4 47 63 -45 45 left 1 5.000000e-01 /Users/lab/Documents/magic3Definitivo/stim/8_noeffect.mov 611 04-May-2017 12:41:57 3.346627e+02 -1.264225e+02 0 0
89MP19_F20 4 48 5 45 45 right 1 5.000000e-01 /Users/lab/Documents/magic3Definitivo/stim/1_noeffect.mov 390 04-May-2017 12:42:21 -1.389307e+02 3.079276e+02 1 1
89MP19_F20 4 49 30 45 -45 right 1 5.000000e-01 /Users/lab/Documents/magic3Definitivo/stim/4_noeffect.mov 414 04-May-2017 12:42:24 2.580056e+02 -2.756430e+02 0 0
89MP19_F20 4 50 80 -45 -45 left 1 5.000000e-01 /Users/lab/Documents/magic3Definitivo/stim/10_noeffect.mov 529 04-May-2017 12:42:27 2.260571e+02 -3.330433e+02 0 0
89MP19_F20 4 51 66 45 -45 right 1 5.000000e-01 /Users/lab/Documents/magic3Definitivo/stim/9_effect.mov 496 04-May-2017 12:42:30 3.363508e+02 3.808041e+02 1 0
89MP19_F20 4 52 17 45 45 right 1 5.000000e-01 /Users/lab/Documents/magic3Definitivo/stim/3_effect.mov 594 04-May-2017 12:42:48 -1.432223e+02 -1.233225e+01 1 1
89MP19_F20 4 53 53 45 45 right 1 5.000000e-01 /Users/lab/Documents/magic3Definitivo/stim/7_noeffect.mov 425 04-May-2017 12:42:51 2.858925e+01 -2.086299e+02 0 0
89MP19_F20 4 54 4 -45 -45 left 1 5.000000e-01 /Users/lab/Documents/magic3Definitivo/stim/1_effect.mov 358 04-May-2017 12:42:54 -2.303423e+02 -1.822869e+02 1 0
89MP19_F20 4 55 40 -45 -45 left 1 5.000000e-01 /Users/lab/Documents/magic3Definitivo/stim/5_noeffect.mov 396 04-May-2017 12:42:57 -9.437590e+01 -4.294082e+02 0 0
89MP19_F20 4 56 13 45 45 right 1 5.000000e-01 /Users/lab/Documents/magic3Definitivo/stim/2_noeffect.mov 495 04-May-2017 12:43:21 -4.879492e+02 -4.297406e+02 0 1
89MP19_F20 4 57 36 -45 -45 left 1 5.000000e-01 /Users/lab/Documents/magic3Definitivo/stim/5_effect.mov 405 04-May-2017 12:43:24 -1.788881e+02 -2.063274e+02 1 0
89MP19_F20 4 58 71 -45 45 right 0 5.000000e-01 /Users/lab/Documents/magic3Definitivo/stim/9_noeffect.mov 402 04-May-2017 12:43:27 4.403016e+02 -2.253366e+02 0 0
89MP19_F20 4 59 41 45 45 right 1 5.000000e-01 /Users/lab/Documents/magic3Definitivo/stim/6_effect.mov 578 04-May-2017 12:43:30 -4.434772e+02 3.477574e+01 1 0
89MP19_F20 4 60 58 45 -45 right 1 5.000000e-01 /Users/lab/Documents/magic3Definitivo/stim/8_effect.mov 594 04-May-2017 12:43:51 -4.719421e+02 -2.067417e+02 1 1
89MP19_F20 4 61 68 -45 -45 left 1 5.000000e-01 /Users/lab/Documents/magic3Definitivo/stim/9_effect.mov 489 04-May-2017 12:43:53 -4.549497e+02 4.805129e+02 1 0
89MP19_F20 4 62 57 45 45 right 1 5.000000e-01 /Users/lab/Documents/magic3Definitivo/stim/8_effect.mov 357 04-May-2017 12:43:56 -1.259406e+02 -1.393927e+02 1 0
89MP19_F20 4 63 39 -45 45 left 1 5.000000e-01 /Users/lab/Documents/magic3Definitivo/stim/5_noeffect.mov 545 04-May-2017 12:43:59 -3.504206e+02 8.567472e+01 0 0
89MP19_F20 4 64 45 45 45 right 1 5.000000e-01 /Users/lab/Documents/magic3Definitivo/stim/6_noeffect.mov 661 04-May-2017 12:44:14 -2.258161e+02 7.883626e+00 0 1
89MP19_F20 4 65 52 -45 -45 right 0 5.000000e-01 /Users/lab/Documents/magic3Definitivo/stim/7_effect.mov 530 04-May-2017 12:44:17 -2.468074e+02 2.656804e+02 1 0
89MP19_F20 4 66 48 -45 -45 left 1 5.000000e-01 /Users/lab/Documents/magic3Definitivo/stim/6_noeffect.mov 762 04-May-2017 12:44:20 6.056788e+01 4.463453e+02 0 0
89MP19_F20 4 67 33 45 45 right 1 5.000000e-01 /Users/lab/Documents/magic3Definitivo/stim/5_effect.mov 454 04-May-2017 12:44:23 4.179314e+02 -9.003579e+01 1 0
89MP19_F20 4 68 37 45 45 right 1 5.000000e-01 /Users/lab/Documents/magic3Definitivo/stim/5_noeffect.mov 496 04-May-2017 12:44:39 1.571643e+02 2.210134e+02 0 1
89MP19_F20 4 69 26 45 -45 left 0 5.000000e-01 /Users/lab/Documents/magic3Definitivo/stim/4_effect.mov 460 04-May-2017 12:44:42 -4.448158e+02 1.395641e+02 1 0
89MP19_F20 4 70 51 -45 45 left 1 5.000000e-01 /Users/lab/Documents/magic3Definitivo/stim/7_effect.mov 545 04-May-2017 12:44:45 -1.519783e+01 1.619998e+02 1 0
89MP19_F20 4 71 64 -45 -45 left 1 5.000000e-01 /Users/lab/Documents/magic3Definitivo/stim/8_noeffect.mov 544 04-May-2017 12:44:48 2.796954e+02 -4.431771e+02 0 0
89MP19_F20 4 72 47 -45 45 left 1 5.000000e-01 /Users/lab/Documents/magic3Definitivo/stim/6_noeffect.mov 544 04-May-2017 12:45:03 -3.091986e+02 3.420598e+02 0 1
89MP19_F20 4 73 28 -45 -45 left 1 5.000000e-01 /Users/lab/Documents/magic3Definitivo/stim/4_effect.mov 528 04-May-2017 12:45:06 3.986619e+02 -2.135011e+02 1 0
89MP19_F20 4 74 2 45 -45 right 1 5.000000e-01 /Users/lab/Documents/magic3Definitivo/stim/1_effect.mov 464 04-May-2017 12:45:09 6.033007e+01 2.595427e+02 1 0
89MP19_F20 4 75 59 -45 45 left 1 5.000000e-01 /Users/lab/Documents/magic3Definitivo/stim/8_effect.mov 471 04-May-2017 12:45:11 -1.073170e+02 -7.672149e+01 1 0
89MP19_F20 4 76 60 -45 -45 left 1 5.000000e-01 /Users/lab/Documents/magic3Definitivo/stim/8_effect.mov 576 04-May-2017 12:45:32 3.621006e+01 -1.789883e+02 1 1
89MP19_F20 4 77 3 -45 45 left 1 5.000000e-01 /Users/lab/Documents/magic3Definitivo/stim/1_effect.mov 423 04-May-2017 12:45:35 -2.379112e+01 1.116294e+02 1 0
89MP19_F20 4 78 8 -45 -45 left 1 5.000000e-01 /Users/lab/Documents/magic3Definitivo/stim/1_noeffect.mov 594 04-May-2017 12:45:38 -2.164091e+02 -1.633406e+02 1 0
89MP19_F20 4 79 77 45 45 left 0 5.000000e-01 /Users/lab/Documents/magic3Definitivo/stim/10_noeffect.mov 594 04-May-2017 12:45:41 -3.547633e+02 2.677717e+02 0 0
89MP19_F20 4 80 27 -45 45 left 1 5.000000e-01 /Users/lab/Documents/magic3Definitivo/stim/4_effect.mov 645 04-May-2017 12:45:44 4.832518e+02 -2.904854e+02 1 0
