subject_name subjectNumber block iTrial unshuffled_trial targetOrientation flankersOrientation response correct onscreen_stim_duration magicShows rt date time_of_day deltaX deltaY surpriseClip isClipTrial isSurprise
em_te_ 1997_10_01_473_f 1016 2 1 0 26 45 -45 right 1 3 /Users/corrado/Documents/experiments/2019/surprise/stim/4_noeffect.mov 688 24-Feb-2022 10:03:27 -3.901872e+02 1.698859e+02 0 1
em_te_ 1997_10_01_473_f 1016 2 2 0 14 45 -45 left 0 3 /Users/corrado/Documents/experiments/2019/surprise/stim/2_noeffect.mov 427 24-Feb-2022 10:03:30 1.574406e+02 -3.868514e+02 0 0
em_te_ 1997_10_01_473_f 1016 2 3 0 6 45 -45 right 1 3 /Users/corrado/Documents/experiments/2019/surprise/stim/1_noeffect.mov 516 24-Feb-2022 10:03:33 -5.970304e+01 -1.418982e+02 0 0
em_te_ 1997_10_01_473_f 1016 2 4 0 37 45 45 right 1 3 /Users/corrado/Documents/experiments/2019/surprise/stim/5_noeffect.mov 645 24-Feb-2022 10:03:49 2.878030e+02 -6.752747e+01 0 1
em_te_ 1997_10_01_473_f 1016 2 5 0 3 -45 45 left 1 3 /Users/corrado/Documents/experiments/2019/surprise/stim/1_noeffect.mov 571 24-Feb-2022 10:03:52 4.298448e+02 1.911505e+01 0 0
em_te_ 1997_10_01_473_f 1016 2 6 0 77 45 45 right 1 3 /Users/corrado/Documents/experiments/2019/surprise/stim/9_noeffect.mov 613 24-Feb-2022 10:03:55 -2.958037e+02 -2.082222e+02 0 0
em_te_ 1997_10_01_473_f 1016 2 7 0 61 45 45 right 1 3 /Users/corrado/Documents/experiments/2019/surprise/stim/8_noeffect.mov 581 24-Feb-2022 10:03:58 -1.787373e+02 3.331172e+02 0 0
em_te_ 1997_10_01_473_f 1016 2 8 0 31 -45 45 left 1 3 /Users/corrado/Documents/experiments/2019/surprise/stim/4_noeffect.mov 594 24-Feb-2022 10:04:15 2.209082e+02 -2.856952e+01 0 1
em_te_ 1997_10_01_473_f 1016 2 9 0 53 45 45 right 1 3 /Users/corrado/Documents/experiments/2019/surprise/stim/7_noeffect.mov 497 24-Feb-2022 10:04:18 -3.226534e+02 -4.417573e+02 0 0
em_te_ 1997_10_01_473_f 1016 2 10 0 43 -45 45 left 1 3 /Users/corrado/Documents/experiments/2019/surprise/stim/6_noeffect.mov 550 24-Feb-2022 10:04:21 -2.674063e+02 2.282511e+02 0 0
em_te_ 1997_10_01_473_f 1016 2 11 0 2 45 -45 right 1 3 /Users/corrado/Documents/experiments/2019/surprise/stim/1_noeffect.mov 543 24-Feb-2022 10:04:24 2.535795e+02 -3.293456e+02 0 0
em_te_ 1997_10_01_473_f 1016 2 12 0 29 45 45 right 1 3 /Users/corrado/Documents/experiments/2019/surprise/stim/4_noeffect.mov 518 24-Feb-2022 10:04:41 1.493995e+02 -7.443661e+01 0 1
em_te_ 1997_10_01_473_f 1016 2 13 0 62 45 -45 right 1 3 /Users/corrado/Documents/experiments/2019/surprise/stim/8_noeffect.mov 487 24-Feb-2022 10:04:43 4.709842e+01 3.712358e+02 0 0
em_te_ 1997_10_01_473_f 1016 2 14 0 34 45 -45 right 1 3 /Users/corrado/Documents/experiments/2019/surprise/stim/5_noeffect.mov 442 24-Feb-2022 10:04:46 -7.705833e+00 -2.330629e+01 0 0
em_te_ 1997_10_01_473_f 1016 2 15 0 63 -45 45 left 1 3 /Users/corrado/Documents/experiments/2019/surprise/stim/8_noeffect.mov 530 24-Feb-2022 10:04:49 1.816933e+02 -2.733581e+02 0 0
em_te_ 1997_10_01_473_f 1016 2 16 0 80 -45 -45 left 1 3 /Users/corrado/Documents/experiments/2019/surprise/stim/9_noeffect.mov 662 24-Feb-2022 10:05:11 -3.949423e+02 -6.259110e+01 0 1
em_te_ 1997_10_01_473_f 1016 2 17 0 30 45 -45 right 1 3 /Users/corrado/Documents/experiments/2019/surprise/stim/4_noeffect.mov 505 24-Feb-2022 10:05:14 -2.111196e+02 3.261514e+02 0 0
em_te_ 1997_10_01_473_f 1016 2 18 0 70 45 -45 right 1 3 /Users/corrado/Documents/experiments/2019/surprise/stim/9_noeffect.mov 414 24-Feb-2022 10:05:16 -1.115367e+02 -1.893707e+02 0 0
em_te_ 1997_10_01_473_f 1016 2 19 0 41 45 45 right 1 3 /Users/corrado/Documents/experiments/2019/surprise/stim/6_noeffect.mov 374 24-Feb-2022 10:05:19 1.036921e+02 1.162622e+02 0 0
em_te_ 1997_10_01_473_f 1016 2 20 0 18 45 -45 right 1 3 /Users/corrado/Documents/experiments/2019/surprise/stim/2_noeffect.mov 553 24-Feb-2022 10:05:44 4.952057e+02 3.822865e+02 0 1
em_te_ 1997_10_01_473_f 1016 2 21 0 24 -45 -45 left 1 3 /Users/corrado/Documents/experiments/2019/surprise/stim/3_noeffect.mov 405 24-Feb-2022 10:05:46 1.331973e+02 7.397270e+01 0 0
em_te_ 1997_10_01_473_f 1016 2 22 0 8 -45 -45 left 1 3 /Users/corrado/Documents/experiments/2019/surprise/stim/1_noeffect.mov 601 24-Feb-2022 10:05:49 4.683864e+02 -3.908841e+02 0 0
em_te_ 1997_10_01_473_f 1016 2 23 0 27 -45 45 left 1 3 /Users/corrado/Documents/experiments/2019/surprise/stim/4_noeffect.mov 680 24-Feb-2022 10:05:52 -4.516499e+01 -1.950994e+02 0 0
em_te_ 1997_10_01_473_f 1016 2 24 0 71 -45 45 left 1 3 /Users/corrado/Documents/experiments/2019/surprise/stim/9_noeffect.mov 557 24-Feb-2022 10:06:14 1.001969e+02 9.721381e+00 0 1
em_te_ 1997_10_01_473_f 1016 2 25 0 72 -45 -45 left 1 3 /Users/corrado/Documents/experiments/2019/surprise/stim/9_noeffect.mov 453 24-Feb-2022 10:06:17 2.636260e+02 2.017732e+02 0 0
em_te_ 1997_10_01_473_f 1016 2 26 0 74 45 -45 right 1 3 /Users/corrado/Documents/experiments/2019/surprise/stim/9_noeffect.mov 538 24-Feb-2022 10:06:20 3.565553e+02 -1.385631e+02 0 0
em_te_ 1997_10_01_473_f 1016 2 27 0 56 -45 -45 left 1 3 /Users/corrado/Documents/experiments/2019/surprise/stim/7_noeffect.mov 364 24-Feb-2022 10:06:23 -3.767558e+02 -3.514475e+02 0 0
em_te_ 1997_10_01_473_f 1016 2 28 0 15 -45 45 left 1 3 /Users/corrado/Documents/experiments/2019/surprise/stim/2_noeffect.mov 706 24-Feb-2022 10:06:47 -1.679212e+02 -1.206101e+02 0 1
em_te_ 1997_10_01_473_f 1016 2 29 0 49 45 45 right 1 3 /Users/corrado/Documents/experiments/2019/surprise/stim/7_noeffect.mov 423 24-Feb-2022 10:06:50 -2.726525e+02 -1.538941e+02 0 0
em_te_ 1997_10_01_473_f 1016 2 30 0 68 -45 -45 left 1 3 /Users/corrado/Documents/experiments/2019/surprise/stim/9_noeffect.mov 339 24-Feb-2022 10:06:53 -1.407072e+02 -1.995834e+02 0 0
em_te_ 1997_10_01_473_f 1016 2 31 0 76 -45 -45 left 1 3 /Users/corrado/Documents/experiments/2019/surprise/stim/9_noeffect.mov 385 24-Feb-2022 10:06:55 -4.219702e+02 -1.220440e+02 0 0
em_te_ 1997_10_01_473_f 1016 2 32 0 17 45 45 right 1 3 /Users/corrado/Documents/experiments/2019/surprise/stim/2_noeffect.mov 515 24-Feb-2022 10:07:20 -2.817318e+02 4.913427e+02 0 1
em_te_ 1997_10_01_473_f 1016 2 33 0 1 45 45 right 1 3 /Users/corrado/Documents/experiments/2019/surprise/stim/1_noeffect.mov 521 24-Feb-2022 10:07:23 -1.473586e+02 -3.710977e+02 0 0
em_te_ 1997_10_01_473_f 1016 2 34 0 46 45 -45 right 1 3 /Users/corrado/Documents/experiments/2019/surprise/stim/6_noeffect.mov 504 24-Feb-2022 10:07:26 -2.430799e+02 1.082885e+02 0 0
em_te_ 1997_10_01_473_f 1016 2 35 0 12 -45 -45 left 1 3 /Users/corrado/Documents/experiments/2019/surprise/stim/2_noeffect.mov 535 24-Feb-2022 10:07:28 4.601342e+02 2.299279e+02 0 0
em_te_ 1997_10_01_473_f 1016 2 36 0 28 -45 -45 right 0 3 /Users/corrado/Documents/experiments/2019/surprise/stim/4_noeffect.mov 548 24-Feb-2022 10:07:45 -1.690929e+02 -4.348846e+02 0 1
em_te_ 1997_10_01_473_f 1016 2 37 0 38 45 -45 right 1 3 /Users/corrado/Documents/experiments/2019/surprise/stim/5_noeffect.mov 398 24-Feb-2022 10:07:48 9.571196e+01 4.643693e+01 0 0
em_te_ 1997_10_01_473_f 1016 2 38 0 58 45 -45 left 0 3 /Users/corrado/Documents/experiments/2019/surprise/stim/8_noeffect.mov 376 24-Feb-2022 10:07:51 -1.421068e+02 4.246387e+02 0 0
em_te_ 1997_10_01_473_f 1016 2 39 0 57 45 45 right 1 3 /Users/corrado/Documents/experiments/2019/surprise/stim/8_noeffect.mov 545 24-Feb-2022 10:07:54 4.614781e+02 9.248636e+01 0 0
em_te_ 1997_10_01_473_f 1016 2 40 0 36 -45 -45 left 1 3 /Users/corrado/Documents/experiments/2019/surprise/stim/5_noeffect.mov 824 24-Feb-2022 10:08:10 -3.968562e+02 2.226825e+01 0 1
em_te_ 1997_10_01_473_f 1016 2 41 0 10 45 -45 left 0 3 /Users/corrado/Documents/experiments/2019/surprise/stim/2_noeffect.mov 435 24-Feb-2022 10:08:13 -7.064161e+01 -1.909859e+02 0 0
em_te_ 1997_10_01_473_f 1016 2 42 0 51 -45 45 left 1 3 /Users/corrado/Documents/experiments/2019/surprise/stim/7_noeffect.mov 488 24-Feb-2022 10:08:16 1.475633e+01 2.018280e+02 0 0
em_te_ 1997_10_01_473_f 1016 2 43 0 40 -45 -45 left 1 3 /Users/corrado/Documents/experiments/2019/surprise/stim/5_noeffect.mov 539 24-Feb-2022 10:08:19 -8.740760e+00 -9.558511e+01 0 0
em_te_ 1997_10_01_473_f 1016 2 44 0 21 45 45 right 1 3 /Users/corrado/Documents/experiments/2019/surprise/stim/3_noeffect.mov 574 24-Feb-2022 10:08:37 -4.988443e+02 1.996229e+02 0 1
em_te_ 1997_10_01_473_f 1016 2 45 0 23 -45 45 left 1 3 /Users/corrado/Documents/experiments/2019/surprise/stim/3_noeffect.mov 539 24-Feb-2022 10:08:40 -3.580116e+02 -2.391835e+02 0 0
em_te_ 1997_10_01_473_f 1016 2 46 0 79 -45 45 left 1 3 /Users/corrado/Documents/experiments/2019/surprise/stim/9_noeffect.mov 555 24-Feb-2022 10:08:43 4.324925e+02 -4.369659e+02 0 0
em_te_ 1997_10_01_473_f 1016 2 47 0 47 -45 45 left 1 3 /Users/corrado/Documents/experiments/2019/surprise/stim/6_noeffect.mov 694 24-Feb-2022 10:08:46 -2.843732e+02 2.211172e+02 0 0
em_te_ 1997_10_01_473_f 1016 2 48 0 33 45 45 right 1 3 /Users/corrado/Documents/experiments/2019/surprise/stim/5_noeffect.mov 950 24-Feb-2022 10:09:03 -2.689877e+02 -5.309511e+01 0 1
em_te_ 1997_10_01_473_f 1016 2 49 0 73 45 45 right 1 3 /Users/corrado/Documents/experiments/2019/surprise/stim/9_noeffect.mov 521 24-Feb-2022 10:09:05 4.448587e+02 -2.543087e+02 0 0
em_te_ 1997_10_01_473_f 1016 2 50 0 48 -45 -45 left 1 3 /Users/corrado/Documents/experiments/2019/surprise/stim/6_noeffect.mov 476 24-Feb-2022 10:09:08 8.025007e+01 -4.763285e+02 0 0
em_te_ 1997_10_01_473_f 1016 2 51 0 45 45 45 right 1 3 /Users/corrado/Documents/experiments/2019/surprise/stim/6_noeffect.mov 403 24-Feb-2022 10:09:11 -3.578204e+01 -4.337570e+02 0 0
em_te_ 1997_10_01_473_f 1016 2 52 0 7 -45 45 left 1 3 /Users/corrado/Documents/experiments/2019/surprise/stim/1_noeffect.mov 587 24-Feb-2022 10:09:36 3.596199e+02 -7.745827e+01 0 1
em_te_ 1997_10_01_473_f 1016 2 53 0 4 -45 -45 left 1 3 /Users/corrado/Documents/experiments/2019/surprise/stim/1_noeffect.mov 494 24-Feb-2022 10:09:39 2.223208e+02 2.633267e+02 0 0
em_te_ 1997_10_01_473_f 1016 2 54 0 50 45 -45 right 1 3 /Users/corrado/Documents/experiments/2019/surprise/stim/7_noeffect.mov 472 24-Feb-2022 10:09:41 5.988530e+01 -4.958334e+02 0 0
em_te_ 1997_10_01_473_f 1016 2 55 0 54 45 -45 right 1 3 /Users/corrado/Documents/experiments/2019/surprise/stim/7_noeffect.mov 476 24-Feb-2022 10:09:44 -7.868957e+01 -1.608905e+02 0 0
em_te_ 1997_10_01_473_f 1016 2 56 0 32 -45 -45 left 1 3 /Users/corrado/Documents/experiments/2019/surprise/stim/4_noeffect.mov 583 24-Feb-2022 10:10:01 3.685282e+01 4.525854e+02 0 1
em_te_ 1997_10_01_473_f 1016 2 57 0 42 45 -45 right 1 3 /Users/corrado/Documents/experiments/2019/surprise/stim/6_noeffect.mov 552 24-Feb-2022 10:10:04 1.132523e+02 -4.040629e+02 0 0
em_te_ 1997_10_01_473_f 1016 2 58 0 44 -45 -45 left 1 3 /Users/corrado/Documents/experiments/2019/surprise/stim/6_noeffect.mov 366 24-Feb-2022 10:10:07 -4.688634e+02 -2.923753e+02 0 0
em_te_ 1997_10_01_473_f 1016 2 59 0 55 -45 45 left 1 3 /Users/corrado/Documents/experiments/2019/surprise/stim/7_noeffect.mov 542 24-Feb-2022 10:10:10 -3.922789e+02 -1.485088e+02 0 0
em_te_ 1997_10_01_473_f 1016 2 60 0 16 -45 -45 left 1 3 /Users/corrado/Documents/experiments/2019/surprise/stim/2_noeffect.mov 576 24-Feb-2022 10:10:34 1.414511e+02 6.304290e+00 0 1
em_te_ 1997_10_01_473_f 1016 2 61 0 11 -45 45 left 1 3 /Users/corrado/Documents/experiments/2019/surprise/stim/2_noeffect.mov 614 24-Feb-2022 10:10:37 -1.486822e+02 -3.723458e+02 0 0
em_te_ 1997_10_01_473_f 1016 2 62 0 69 45 45 right 1 3 /Users/corrado/Documents/experiments/2019/surprise/stim/9_noeffect.mov 463 24-Feb-2022 10:10:40 2.562032e+02 3.598373e+02 0 0
em_te_ 1997_10_01_473_f 1016 2 63 0 75 -45 45 left 1 3 /Users/corrado/Documents/experiments/2019/surprise/stim/9_noeffect.mov 594 24-Feb-2022 10:10:43 4.586597e+02 -3.670895e+02 0 0
em_te_ 1997_10_01_473_f 1016 2 64 0 25 45 45 right 1 3 /Users/corrado/Documents/experiments/2019/surprise/stim/4_noeffect.mov 907 24-Feb-2022 10:11:01 -4.995069e+02 1.019713e+02 0 1
em_te_ 1997_10_01_473_f 1016 2 65 0 65 45 45 left 0 3 /Users/corrado/Documents/experiments/2019/surprise/stim/9_noeffect.mov 530 24-Feb-2022 10:11:04 -4.513576e+02 1.825695e+02 0 0
em_te_ 1997_10_01_473_f 1016 2 66 0 9 45 45 right 1 3 /Users/corrado/Documents/experiments/2019/surprise/stim/2_noeffect.mov 773 24-Feb-2022 10:11:07 -3.912646e+02 -2.551452e+02 0 0
em_te_ 1997_10_01_473_f 1016 2 67 0 5 45 45 right 1 3 /Users/corrado/Documents/experiments/2019/surprise/stim/1_noeffect.mov 517 24-Feb-2022 10:11:10 3.825138e+02 4.932445e+02 0 0
em_te_ 1997_10_01_473_f 1016 2 68 0 22 45 -45 right 1 3 /Users/corrado/Documents/experiments/2019/surprise/stim/3_noeffect.mov 524 24-Feb-2022 10:11:28 1.883609e+02 4.382693e+02 0 1
em_te_ 1997_10_01_473_f 1016 2 69 0 20 -45 -45 right 0 3 /Users/corrado/Documents/experiments/2019/surprise/stim/2_noeffect.mov 607 24-Feb-2022 10:11:31 -2.297205e+02 -2.130392e+02 0 0
em_te_ 1997_10_01_473_f 1016 2 70 0 78 45 -45 right 1 3 /Users/corrado/Documents/experiments/2019/surprise/stim/9_noeffect.mov 553 24-Feb-2022 10:11:33 -2.061175e+02 3.030419e+02 0 0
em_te_ 1997_10_01_473_f 1016 2 71 0 64 -45 -45 left 1 3 /Users/corrado/Documents/experiments/2019/surprise/stim/8_noeffect.mov 678 24-Feb-2022 10:11:36 4.668429e+02 -8.650336e-01 0 0
em_te_ 1997_10_01_473_f 1016 2 72 0 59 -45 45 left 1 3 /Users/corrado/Documents/experiments/2019/surprise/stim/8_noeffect.mov 712 24-Feb-2022 10:11:58 3.790779e+02 -4.340732e+02 0 1
em_te_ 1997_10_01_473_f 1016 2 73 0 67 -45 45 left 1 3 /Users/corrado/Documents/experiments/2019/surprise/stim/9_noeffect.mov 482 24-Feb-2022 10:12:00 -2.410445e+02 -2.841156e+02 0 0
em_te_ 1997_10_01_473_f 1016 2 74 0 66 45 -45 right 1 3 /Users/corrado/Documents/experiments/2019/surprise/stim/9_noeffect.mov 533 24-Feb-2022 10:12:03 7.927950e+01 -4.186317e+02 0 0
em_te_ 1997_10_01_473_f 1016 2 75 0 13 45 45 left 0 3 /Users/corrado/Documents/experiments/2019/surprise/stim/2_noeffect.mov 556 24-Feb-2022 10:12:06 -2.729624e+02 4.792524e+02 0 0
em_te_ 1997_10_01_473_f 1016 2 76 0 39 -45 45 left 1 3 /Users/corrado/Documents/experiments/2019/surprise/stim/5_noeffect.mov 664 24-Feb-2022 10:12:23 1.661425e+01 1.913033e+02 0 1
em_te_ 1997_10_01_473_f 1016 2 77 0 60 -45 -45 left 1 3 /Users/corrado/Documents/experiments/2019/surprise/stim/8_noeffect.mov 643 24-Feb-2022 10:12:26 4.366340e+02 -2.368291e+02 0 0
em_te_ 1997_10_01_473_f 1016 2 78 0 52 -45 -45 left 1 3 /Users/corrado/Documents/experiments/2019/surprise/stim/7_noeffect.mov 385 24-Feb-2022 10:12:28 -3.526580e+02 -3.892336e+02 0 0
em_te_ 1997_10_01_473_f 1016 2 79 0 19 -45 45 left 1 3 /Users/corrado/Documents/experiments/2019/surprise/stim/2_noeffect.mov 548 24-Feb-2022 10:12:31 4.584844e+02 -4.732592e+02 0 0
em_te_ 1997_10_01_473_f 1016 2 80 0 35 -45 45 left 1 3 /Users/corrado/Documents/experiments/2019/surprise/stim/5_noeffect.mov 582 24-Feb-2022 10:12:34 -2.177397e+01 4.094919e+02 0 0
