subject_name subjectNumber iTrial unshuffled_trial targetOrientation flankersOrientation response correct onscreen_stim_duration magicShows rt date time_of_day deltaX deltaY surpriseClip isClipTrial
03ap25_f22 595 1 28 -45 -45 left 1 5.000000e-01 /Users/corrado/Dropbox/experiments/surprise_control_exp/stim/4_noeffect.mov 549 25-May-2018 12:54:40 3.827579e+02 -1.917682e+02 0 1
03ap25_f22 595 2 50 45 -45 right 1 5.000000e-01 /Users/corrado/Dropbox/experiments/surprise_control_exp/stim/7_noeffect.mov 491 25-May-2018 12:54:43 -3.628767e+01 -4.219023e+02 0 0
03ap25_f22 595 3 20 -45 -45 left 1 5.000000e-01 /Users/corrado/Dropbox/experiments/surprise_control_exp/stim/2_noeffect.mov 480 25-May-2018 12:54:46 -3.141069e+02 -2.541164e+01 0 0
03ap25_f22 595 4 42 45 -45 right 1 5.000000e-01 /Users/corrado/Dropbox/experiments/surprise_control_exp/stim/6_noeffect.mov 566 25-May-2018 12:55:01 4.900428e+02 -4.617240e+02 0 1
03ap25_f22 595 5 32 -45 -45 left 1 5.000000e-01 /Users/corrado/Dropbox/experiments/surprise_control_exp/stim/4_noeffect.mov 610 25-May-2018 12:55:04 -3.632450e+02 3.885465e+02 0 0
03ap25_f22 595 6 70 45 -45 right 1 5.000000e-01 /Users/corrado/Dropbox/experiments/surprise_control_exp/stim/9_noeffect.mov 470 25-May-2018 12:55:07 4.579555e+02 -1.021707e+02 0 0
03ap25_f22 595 7 39 -45 45 left 1 5.000000e-01 /Users/corrado/Dropbox/experiments/surprise_control_exp/stim/5_noeffect.mov 527 25-May-2018 12:55:10 4.078048e+01 -4.938982e+02 0 0
03ap25_f22 595 8 80 -45 -45 left 1 5.000000e-01 /Users/corrado/Dropbox/experiments/surprise_control_exp/stim/9_noeffect.mov 529 25-May-2018 12:55:33 -2.461772e+02 3.324140e+02 0 1
03ap25_f22 595 9 25 45 45 right 1 5.000000e-01 /Users/corrado/Dropbox/experiments/surprise_control_exp/stim/4_noeffect.mov 489 25-May-2018 12:55:36 -3.069910e+02 -4.138244e+02 0 0
03ap25_f22 595 10 68 -45 -45 left 1 5.000000e-01 /Users/corrado/Dropbox/experiments/surprise_control_exp/stim/9_noeffect.mov 400 25-May-2018 12:55:38 -1.297596e+02 -4.298360e+02 0 0
03ap25_f22 595 11 34 45 -45 left 0 5.000000e-01 /Users/corrado/Dropbox/experiments/surprise_control_exp/stim/5_noeffect.mov 369 25-May-2018 12:55:41 -2.029119e+02 1.085334e+02 0 0
03ap25_f22 595 12 36 -45 -45 left 1 5.000000e-01 /Users/corrado/Dropbox/experiments/surprise_control_exp/stim/5_noeffect.mov 612 25-May-2018 12:55:59 4.832958e+02 2.926067e+02 0 1
03ap25_f22 595 13 44 -45 -45 left 1 5.000000e-01 /Users/corrado/Dropbox/experiments/surprise_control_exp/stim/6_noeffect.mov 468 25-May-2018 12:56:01 -3.189717e+02 3.877020e+02 0 0
03ap25_f22 595 14 60 -45 -45 left 1 5.000000e-01 /Users/corrado/Dropbox/experiments/surprise_control_exp/stim/8_noeffect.mov 493 25-May-2018 12:56:04 -3.447264e+02 1.611251e+02 0 0
03ap25_f22 595 15 3 -45 45 left 1 5.000000e-01 /Users/corrado/Dropbox/experiments/surprise_control_exp/stim/1_noeffect.mov 559 25-May-2018 12:56:07 1.806808e+02 4.471503e+02 0 0
03ap25_f22 595 16 16 -45 -45 left 1 5.000000e-01 /Users/corrado/Dropbox/experiments/surprise_control_exp/stim/2_noeffect.mov 644 25-May-2018 12:56:33 -3.099911e+02 4.920703e+02 0 1
03ap25_f22 595 17 79 -45 45 left 1 5.000000e-01 /Users/corrado/Dropbox/experiments/surprise_control_exp/stim/9_noeffect.mov 543 25-May-2018 12:56:36 2.013217e+02 -3.687628e+02 0 0
03ap25_f22 595 18 29 45 45 right 1 5.000000e-01 /Users/corrado/Dropbox/experiments/surprise_control_exp/stim/4_noeffect.mov 414 25-May-2018 12:56:39 4.152480e+02 4.643440e+02 0 0
03ap25_f22 595 19 66 45 -45 right 1 5.000000e-01 /Users/corrado/Dropbox/experiments/surprise_control_exp/stim/9_noeffect.mov 465 25-May-2018 12:56:41 -1.410164e+02 -2.947366e+02 0 0
03ap25_f22 595 20 52 -45 -45 left 1 5.000000e-01 /Users/corrado/Dropbox/experiments/surprise_control_exp/stim/7_noeffect.mov 646 25-May-2018 12:57:02 7.130577e+01 -4.014637e+02 0 1
03ap25_f22 595 21 1 45 45 right 1 5.000000e-01 /Users/corrado/Dropbox/experiments/surprise_control_exp/stim/1_noeffect.mov 351 25-May-2018 12:57:04 4.952168e+02 -2.035296e+02 0 0
03ap25_f22 595 22 69 45 45 right 1 5.000000e-01 /Users/corrado/Dropbox/experiments/surprise_control_exp/stim/9_noeffect.mov 408 25-May-2018 12:57:07 -2.443184e+02 4.421170e+02 0 0
03ap25_f22 595 23 19 -45 45 left 1 5.000000e-01 /Users/corrado/Dropbox/experiments/surprise_control_exp/stim/2_noeffect.mov 450 25-May-2018 12:57:10 1.426610e+01 3.644309e+02 0 0
03ap25_f22 595 24 24 -45 -45 left 1 5.000000e-01 /Users/corrado/Dropbox/experiments/surprise_control_exp/stim/3_noeffect.mov 513 25-May-2018 12:57:29 5.025718e+01 -1.695934e+02 0 1
03ap25_f22 595 25 54 45 -45 right 1 5.000000e-01 /Users/corrado/Dropbox/experiments/surprise_control_exp/stim/7_noeffect.mov 462 25-May-2018 12:57:32 -1.561944e+02 -3.020193e+01 0 0
03ap25_f22 595 26 14 45 -45 right 1 5.000000e-01 /Users/corrado/Dropbox/experiments/surprise_control_exp/stim/2_noeffect.mov 526 25-May-2018 12:57:35 1.652156e+02 2.539436e+02 0 0
03ap25_f22 595 27 57 45 45 right 1 5.000000e-01 /Users/corrado/Dropbox/experiments/surprise_control_exp/stim/8_noeffect.mov 364 25-May-2018 12:57:37 1.309904e+02 -1.168025e+02 0 0
03ap25_f22 595 28 67 -45 45 left 1 5.000000e-01 /Users/corrado/Dropbox/experiments/surprise_control_exp/stim/9_noeffect.mov 463 25-May-2018 12:58:00 1.369537e+02 4.135512e+02 0 1
03ap25_f22 595 29 59 -45 45 right 0 5.000000e-01 /Users/corrado/Dropbox/experiments/surprise_control_exp/stim/8_noeffect.mov 565 25-May-2018 12:58:03 -4.648854e+02 1.430724e+01 0 0
03ap25_f22 595 30 9 45 45 right 1 5.000000e-01 /Users/corrado/Dropbox/experiments/surprise_control_exp/stim/2_noeffect.mov 370 25-May-2018 12:58:06 1.968436e+02 6.374857e+01 0 0
03ap25_f22 595 31 38 45 -45 right 1 5.000000e-01 /Users/corrado/Dropbox/experiments/surprise_control_exp/stim/5_noeffect.mov 542 25-May-2018 12:58:09 -3.043848e+02 1.613358e+02 0 0
03ap25_f22 595 32 40 -45 -45 left 1 5.000000e-01 /Users/corrado/Dropbox/experiments/surprise_control_exp/stim/5_noeffect.mov 597 25-May-2018 12:58:26 -3.620599e+02 -7.093456e+01 0 1
03ap25_f22 595 33 21 45 45 right 1 5.000000e-01 /Users/corrado/Dropbox/experiments/surprise_control_exp/stim/3_noeffect.mov 363 25-May-2018 12:58:29 1.515505e+02 3.870041e+02 0 0
03ap25_f22 595 34 71 -45 45 left 1 5.000000e-01 /Users/corrado/Dropbox/experiments/surprise_control_exp/stim/9_noeffect.mov 473 25-May-2018 12:58:31 3.646031e+01 -1.476883e+00 0 0
03ap25_f22 595 35 62 45 -45 right 1 5.000000e-01 /Users/corrado/Dropbox/experiments/surprise_control_exp/stim/8_noeffect.mov 423 25-May-2018 12:58:34 6.912159e+01 -1.482167e+02 0 0
03ap25_f22 595 36 10 45 -45 right 1 5.000000e-01 /Users/corrado/Dropbox/experiments/surprise_control_exp/stim/2_noeffect.mov 531 25-May-2018 12:59:00 -2.571612e+02 3.299897e+02 0 1
03ap25_f22 595 37 72 -45 -45 left 1 5.000000e-01 /Users/corrado/Dropbox/experiments/surprise_control_exp/stim/9_noeffect.mov 398 25-May-2018 12:59:03 -2.765906e+01 4.792494e+02 0 0
03ap25_f22 595 38 23 -45 45 left 1 5.000000e-01 /Users/corrado/Dropbox/experiments/surprise_control_exp/stim/3_noeffect.mov 559 25-May-2018 12:59:06 4.656920e+01 -4.804374e+02 0 0
03ap25_f22 595 39 15 -45 45 left 1 5.000000e-01 /Users/corrado/Dropbox/experiments/surprise_control_exp/stim/2_noeffect.mov 525 25-May-2018 12:59:09 -1.643613e+01 4.641326e+02 0 0
03ap25_f22 595 40 4 -45 -45 left 1 5.000000e-01 /Users/corrado/Dropbox/experiments/surprise_control_exp/stim/1_noeffect.mov 597 25-May-2018 12:59:35 2.130182e+02 -3.855579e+01 0 1
03ap25_f22 595 41 78 45 -45 right 1 5.000000e-01 /Users/corrado/Dropbox/experiments/surprise_control_exp/stim/9_noeffect.mov 542 25-May-2018 12:59:38 -2.388316e+01 3.172300e+02 0 0
03ap25_f22 595 42 30 45 -45 right 1 5.000000e-01 /Users/corrado/Dropbox/experiments/surprise_control_exp/stim/4_noeffect.mov 483 25-May-2018 12:59:41 -3.497878e+02 1.487708e+02 0 0
03ap25_f22 595 43 63 -45 45 left 1 5.000000e-01 /Users/corrado/Dropbox/experiments/surprise_control_exp/stim/8_noeffect.mov 434 25-May-2018 12:59:43 4.805106e+01 2.494669e+02 0 0
03ap25_f22 595 44 49 45 45 right 1 5.000000e-01 /Users/corrado/Dropbox/experiments/surprise_control_exp/stim/7_noeffect.mov 546 25-May-2018 13:00:03 -3.649377e+02 3.350428e+02 0 1
03ap25_f22 595 45 31 -45 45 left 1 5.000000e-01 /Users/corrado/Dropbox/experiments/surprise_control_exp/stim/4_noeffect.mov 543 25-May-2018 13:00:06 4.712401e+02 4.044628e+02 0 0
03ap25_f22 595 46 13 45 45 right 1 5.000000e-01 /Users/corrado/Dropbox/experiments/surprise_control_exp/stim/2_noeffect.mov 484 25-May-2018 13:00:09 -3.876664e+02 4.502796e+02 0 0
03ap25_f22 595 47 51 -45 45 left 1 5.000000e-01 /Users/corrado/Dropbox/experiments/surprise_control_exp/stim/7_noeffect.mov 527 25-May-2018 13:00:12 3.515971e+00 -3.575542e+02 0 0
03ap25_f22 595 48 73 45 45 right 1 5.000000e-01 /Users/corrado/Dropbox/experiments/surprise_control_exp/stim/9_noeffect.mov 513 25-May-2018 13:00:35 4.195616e+02 -3.771303e+02 0 1
03ap25_f22 595 49 65 45 45 right 1 5.000000e-01 /Users/corrado/Dropbox/experiments/surprise_control_exp/stim/9_noeffect.mov 412 25-May-2018 13:00:38 -5.612454e+01 3.135593e+02 0 0
03ap25_f22 595 50 26 45 -45 right 1 5.000000e-01 /Users/corrado/Dropbox/experiments/surprise_control_exp/stim/4_noeffect.mov 447 25-May-2018 13:00:40 5.519852e+01 6.902300e+01 0 0
03ap25_f22 595 51 27 -45 45 left 1 5.000000e-01 /Users/corrado/Dropbox/experiments/surprise_control_exp/stim/4_noeffect.mov 527 25-May-2018 13:00:43 -2.806678e+02 1.966187e+02 0 0
03ap25_f22 595 52 55 -45 45 left 1 5.000000e-01 /Users/corrado/Dropbox/experiments/surprise_control_exp/stim/7_noeffect.mov 681 25-May-2018 13:01:03 -4.347332e+02 -3.716760e+02 0 1
03ap25_f22 595 53 7 -45 45 left 1 5.000000e-01 /Users/corrado/Dropbox/experiments/surprise_control_exp/stim/1_noeffect.mov 470 25-May-2018 13:01:06 1.759671e+02 6.394857e+01 0 0
03ap25_f22 595 54 11 -45 45 left 1 5.000000e-01 /Users/corrado/Dropbox/experiments/surprise_control_exp/stim/2_noeffect.mov 451 25-May-2018 13:01:09 1.901998e+01 1.774247e+02 0 0
03ap25_f22 595 55 33 45 45 right 1 5.000000e-01 /Users/corrado/Dropbox/experiments/surprise_control_exp/stim/5_noeffect.mov 420 25-May-2018 13:01:12 2.121330e+02 2.050274e+02 0 0
03ap25_f22 595 56 53 45 45 right 1 5.000000e-01 /Users/corrado/Dropbox/experiments/surprise_control_exp/stim/7_noeffect.mov 597 25-May-2018 13:01:32 3.775360e+02 2.804458e+02 0 1
03ap25_f22 595 57 75 -45 45 left 1 5.000000e-01 /Users/corrado/Dropbox/experiments/surprise_control_exp/stim/9_noeffect.mov 526 25-May-2018 13:01:35 -2.815589e+02 1.031889e+02 0 0
03ap25_f22 595 58 74 45 -45 right 1 5.000000e-01 /Users/corrado/Dropbox/experiments/surprise_control_exp/stim/9_noeffect.mov 660 25-May-2018 13:01:38 -1.065622e+02 -3.490772e+02 0 0
03ap25_f22 595 59 47 -45 45 left 1 5.000000e-01 /Users/corrado/Dropbox/experiments/surprise_control_exp/stim/6_noeffect.mov 560 25-May-2018 13:01:40 -9.283650e+01 -2.291729e+02 0 0
03ap25_f22 595 60 18 45 -45 right 1 5.000000e-01 /Users/corrado/Dropbox/experiments/surprise_control_exp/stim/2_noeffect.mov 564 25-May-2018 13:02:07 2.791113e+02 -4.735238e+02 0 1
03ap25_f22 595 61 46 45 -45 right 1 5.000000e-01 /Users/corrado/Dropbox/experiments/surprise_control_exp/stim/6_noeffect.mov 542 25-May-2018 13:02:09 -4.528794e+01 2.529013e+02 0 0
03ap25_f22 595 62 43 -45 45 left 1 5.000000e-01 /Users/corrado/Dropbox/experiments/surprise_control_exp/stim/6_noeffect.mov 526 25-May-2018 13:02:12 2.411180e+02 1.845132e+02 0 0
03ap25_f22 595 63 56 -45 -45 left 1 5.000000e-01 /Users/corrado/Dropbox/experiments/surprise_control_exp/stim/7_noeffect.mov 575 25-May-2018 13:02:15 -4.294098e+00 -2.786754e+02 0 0
03ap25_f22 595 64 8 -45 -45 left 1 5.000000e-01 /Users/corrado/Dropbox/experiments/surprise_control_exp/stim/1_noeffect.mov 581 25-May-2018 13:02:41 1.765533e-01 -4.311751e+02 0 1
03ap25_f22 595 65 64 -45 -45 left 1 5.000000e-01 /Users/corrado/Dropbox/experiments/surprise_control_exp/stim/8_noeffect.mov 400 25-May-2018 13:02:44 -1.824261e+01 -2.161881e+02 0 0
03ap25_f22 595 66 76 -45 -45 left 1 5.000000e-01 /Users/corrado/Dropbox/experiments/surprise_control_exp/stim/9_noeffect.mov 469 25-May-2018 13:02:47 2.689830e+01 -4.634717e+02 0 0
03ap25_f22 595 67 17 45 45 right 1 5.000000e-01 /Users/corrado/Dropbox/experiments/surprise_control_exp/stim/2_noeffect.mov 390 25-May-2018 13:02:50 1.770403e+02 -1.740693e+02 0 0
03ap25_f22 595 68 45 45 45 right 1 5.000000e-01 /Users/corrado/Dropbox/experiments/surprise_control_exp/stim/6_noeffect.mov 597 25-May-2018 13:03:05 3.500221e+01 -4.000996e+02 0 1
03ap25_f22 595 69 5 45 45 right 1 5.000000e-01 /Users/corrado/Dropbox/experiments/surprise_control_exp/stim/1_noeffect.mov 436 25-May-2018 13:03:08 4.494722e+02 -7.468191e+01 0 0
03ap25_f22 595 70 41 45 45 right 1 5.000000e-01 /Users/corrado/Dropbox/experiments/surprise_control_exp/stim/6_noeffect.mov 379 25-May-2018 13:03:11 2.422461e+02 1.537474e+02 0 0
03ap25_f22 595 71 22 45 -45 right 1 5.000000e-01 /Users/corrado/Dropbox/experiments/surprise_control_exp/stim/3_noeffect.mov 462 25-May-2018 13:03:14 1.310155e+02 -4.999312e+02 0 0
03ap25_f22 595 72 12 -45 -45 left 1 5.000000e-01 /Users/corrado/Dropbox/experiments/surprise_control_exp/stim/2_noeffect.mov 612 25-May-2018 13:03:40 3.689730e+02 2.225690e+01 0 1
03ap25_f22 595 73 37 45 45 right 1 5.000000e-01 /Users/corrado/Dropbox/experiments/surprise_control_exp/stim/5_noeffect.mov 543 25-May-2018 13:03:43 8.774962e+01 -1.290851e+02 0 0
03ap25_f22 595 74 2 45 -45 left 0 5.000000e-01 /Users/corrado/Dropbox/experiments/surprise_control_exp/stim/1_noeffect.mov 411 25-May-2018 13:03:45 6.523116e+01 3.703611e+02 0 0
03ap25_f22 595 75 48 -45 -45 left 1 5.000000e-01 /Users/corrado/Dropbox/experiments/surprise_control_exp/stim/6_noeffect.mov 609 25-May-2018 13:03:48 -4.571853e+02 1.469679e+02 0 0
03ap25_f22 595 76 58 45 -45 right 1 5.000000e-01 /Users/corrado/Dropbox/experiments/surprise_control_exp/stim/8_noeffect.mov 598 25-May-2018 13:04:10 -4.207433e+02 -2.126045e+02 0 1
03ap25_f22 595 77 77 45 45 right 1 5.000000e-01 /Users/corrado/Dropbox/experiments/surprise_control_exp/stim/9_noeffect.mov 380 25-May-2018 13:04:13 1.583996e+02 -2.739577e+02 0 0
03ap25_f22 595 78 61 45 45 right 1 5.000000e-01 /Users/corrado/Dropbox/experiments/surprise_control_exp/stim/8_noeffect.mov 351 25-May-2018 13:04:16 -1.482654e+02 -9.294590e+01 0 0
03ap25_f22 595 79 6 45 -45 right 1 5.000000e-01 /Users/corrado/Dropbox/experiments/surprise_control_exp/stim/1_noeffect.mov 388 25-May-2018 13:04:18 -8.259940e+00 4.428580e+01 0 0
03ap25_f22 595 80 35 -45 45 left 1 5.000000e-01 /Users/corrado/Dropbox/experiments/surprise_control_exp/stim/5_noeffect.mov 576 25-May-2018 13:04:21 1.471245e+02 4.017761e+01 0 0
