subject_name subjectNumber iTrial unshuffled_trial targetOrientation flankersOrientation response correct onscreen_stim_duration magicShows rt date time_of_day deltaX deltaY surpriseClip isClipTrial
77lm27_m19 536 1 10 45 -45 right 1 5.000000e-01 /Users/corrado/Dropbox/experiments/surprise_control_exp/stim/2_noeffect.mov 729 22-May-2018 10:19:17 4.363129e+02 4.959540e+01 0 1
77lm27_m19 536 2 68 -45 -45 left 1 5.000000e-01 /Users/corrado/Dropbox/experiments/surprise_control_exp/stim/9_noeffect.mov 1175 22-May-2018 10:19:20 -4.924351e+02 3.683574e+02 0 0
77lm27_m19 536 3 9 45 45 right 1 5.000000e-01 /Users/corrado/Dropbox/experiments/surprise_control_exp/stim/2_noeffect.mov 694 22-May-2018 10:19:23 -3.420816e+02 2.706273e+02 0 0
77lm27_m19 536 4 33 45 45 right 1 5.000000e-01 /Users/corrado/Dropbox/experiments/surprise_control_exp/stim/5_noeffect.mov 650 22-May-2018 10:19:41 3.817496e+02 -2.550364e+02 0 1
77lm27_m19 536 5 46 45 -45 right 1 5.000000e-01 /Users/corrado/Dropbox/experiments/surprise_control_exp/stim/6_noeffect.mov 543 22-May-2018 10:19:43 -3.374628e+02 8.433436e-01 0 0
77lm27_m19 536 6 53 45 45 right 1 5.000000e-01 /Users/corrado/Dropbox/experiments/surprise_control_exp/stim/7_noeffect.mov 525 22-May-2018 10:19:46 -3.690127e+02 -2.546520e+02 0 0
77lm27_m19 536 7 74 45 -45 right 1 5.000000e-01 /Users/corrado/Dropbox/experiments/surprise_control_exp/stim/9_noeffect.mov 543 22-May-2018 10:19:49 -4.215710e+02 -4.620570e+02 0 0
77lm27_m19 536 8 63 -45 45 left 1 5.000000e-01 /Users/corrado/Dropbox/experiments/surprise_control_exp/stim/8_noeffect.mov 547 22-May-2018 10:20:11 7.038850e+01 5.165997e+01 0 1
77lm27_m19 536 9 54 45 -45 right 1 5.000000e-01 /Users/corrado/Dropbox/experiments/surprise_control_exp/stim/7_noeffect.mov 732 22-May-2018 10:20:14 3.106654e+02 4.629989e+02 0 0
77lm27_m19 536 10 47 -45 45 left 1 5.000000e-01 /Users/corrado/Dropbox/experiments/surprise_control_exp/stim/6_noeffect.mov 565 22-May-2018 10:20:17 1.931678e+02 4.869827e+02 0 0
77lm27_m19 536 11 58 45 -45 right 1 5.000000e-01 /Users/corrado/Dropbox/experiments/surprise_control_exp/stim/8_noeffect.mov 533 22-May-2018 10:20:20 -3.509395e+02 4.377682e+02 0 0
77lm27_m19 536 12 29 45 45 right 1 5.000000e-01 /Users/corrado/Dropbox/experiments/surprise_control_exp/stim/4_noeffect.mov 799 22-May-2018 10:20:38 4.835498e+02 3.880953e+01 0 1
77lm27_m19 536 13 60 -45 -45 left 1 5.000000e-01 /Users/corrado/Dropbox/experiments/surprise_control_exp/stim/8_noeffect.mov 749 22-May-2018 10:20:42 -5.913422e+01 -2.158938e+02 0 0
77lm27_m19 536 14 23 -45 45 left 1 5.000000e-01 /Users/corrado/Dropbox/experiments/surprise_control_exp/stim/3_noeffect.mov 709 22-May-2018 10:20:45 -4.465442e+02 -2.070693e+02 0 0
77lm27_m19 536 15 40 -45 -45 left 1 5.000000e-01 /Users/corrado/Dropbox/experiments/surprise_control_exp/stim/5_noeffect.mov 783 22-May-2018 10:20:48 1.139323e+02 2.480882e+02 0 0
77lm27_m19 536 16 50 45 -45 right 1 5.000000e-01 /Users/corrado/Dropbox/experiments/surprise_control_exp/stim/7_noeffect.mov 817 22-May-2018 10:21:08 -4.157135e+02 4.809974e+01 0 1
77lm27_m19 536 17 11 -45 45 left 1 5.000000e-01 /Users/corrado/Dropbox/experiments/surprise_control_exp/stim/2_noeffect.mov 544 22-May-2018 10:21:11 2.791017e+02 -4.442668e+02 0 0
77lm27_m19 536 18 16 -45 -45 left 1 5.000000e-01 /Users/corrado/Dropbox/experiments/surprise_control_exp/stim/2_noeffect.mov 760 22-May-2018 10:21:14 -1.872285e+02 -4.454136e+01 0 0
77lm27_m19 536 19 57 45 45 right 1 5.000000e-01 /Users/corrado/Dropbox/experiments/surprise_control_exp/stim/8_noeffect.mov 625 22-May-2018 10:21:17 2.507089e+02 -2.515176e+02 0 0
77lm27_m19 536 20 62 45 -45 right 1 5.000000e-01 /Users/corrado/Dropbox/experiments/surprise_control_exp/stim/8_noeffect.mov 648 22-May-2018 10:21:39 4.094282e+02 -3.385081e+02 0 1
77lm27_m19 536 21 48 -45 -45 left 1 5.000000e-01 /Users/corrado/Dropbox/experiments/surprise_control_exp/stim/6_noeffect.mov 485 22-May-2018 10:21:42 8.030272e+01 1.116643e+02 0 0
77lm27_m19 536 22 25 45 45 right 1 5.000000e-01 /Users/corrado/Dropbox/experiments/surprise_control_exp/stim/4_noeffect.mov 675 22-May-2018 10:21:45 -2.749978e+02 1.132759e+02 0 0
77lm27_m19 536 23 37 45 45 right 1 5.000000e-01 /Users/corrado/Dropbox/experiments/surprise_control_exp/stim/5_noeffect.mov 717 22-May-2018 10:21:48 3.054358e+02 -1.169112e+02 0 0
77lm27_m19 536 24 15 -45 45 left 1 5.000000e-01 /Users/corrado/Dropbox/experiments/surprise_control_exp/stim/2_noeffect.mov 697 22-May-2018 10:22:14 1.346566e+02 -1.278198e+02 0 1
77lm27_m19 536 25 22 45 -45 right 1 5.000000e-01 /Users/corrado/Dropbox/experiments/surprise_control_exp/stim/3_noeffect.mov 962 22-May-2018 10:22:18 -9.979762e+01 4.142320e+02 0 0
77lm27_m19 536 26 66 45 -45 right 1 5.000000e-01 /Users/corrado/Dropbox/experiments/surprise_control_exp/stim/9_noeffect.mov 593 22-May-2018 10:22:21 -3.260346e+02 2.532574e+00 0 0
77lm27_m19 536 27 21 45 45 right 1 5.000000e-01 /Users/corrado/Dropbox/experiments/surprise_control_exp/stim/3_noeffect.mov 810 22-May-2018 10:22:24 1.105603e+02 1.294444e+02 0 0
77lm27_m19 536 28 8 -45 -45 left 1 5.000000e-01 /Users/corrado/Dropbox/experiments/surprise_control_exp/stim/1_noeffect.mov 613 22-May-2018 10:22:50 3.321438e+02 -4.701704e+02 0 1
77lm27_m19 536 29 61 45 45 right 1 5.000000e-01 /Users/corrado/Dropbox/experiments/surprise_control_exp/stim/8_noeffect.mov 559 22-May-2018 10:22:53 5.575223e+01 -3.624075e+01 0 0
77lm27_m19 536 30 38 45 -45 right 1 5.000000e-01 /Users/corrado/Dropbox/experiments/surprise_control_exp/stim/5_noeffect.mov 716 22-May-2018 10:22:56 -4.970750e+02 1.732263e+02 0 0
77lm27_m19 536 31 45 45 45 right 1 5.000000e-01 /Users/corrado/Dropbox/experiments/surprise_control_exp/stim/6_noeffect.mov 660 22-May-2018 10:22:59 -1.506864e+02 -2.701237e+02 0 0
77lm27_m19 536 32 73 45 45 right 1 5.000000e-01 /Users/corrado/Dropbox/experiments/surprise_control_exp/stim/9_noeffect.mov 615 22-May-2018 10:23:22 2.803877e+02 3.588042e+01 0 1
77lm27_m19 536 33 1 45 45 right 1 5.000000e-01 /Users/corrado/Dropbox/experiments/surprise_control_exp/stim/1_noeffect.mov 483 22-May-2018 10:23:25 -3.607027e+01 -4.924505e+02 0 0
77lm27_m19 536 34 6 45 -45 right 1 5.000000e-01 /Users/corrado/Dropbox/experiments/surprise_control_exp/stim/1_noeffect.mov 472 22-May-2018 10:23:28 2.203277e+02 -4.106147e+02 0 0
77lm27_m19 536 35 2 45 -45 right 1 5.000000e-01 /Users/corrado/Dropbox/experiments/surprise_control_exp/stim/1_noeffect.mov 453 22-May-2018 10:23:31 1.967165e+02 -3.817285e+02 0 0
77lm27_m19 536 36 19 -45 45 left 1 5.000000e-01 /Users/corrado/Dropbox/experiments/surprise_control_exp/stim/2_noeffect.mov 879 22-May-2018 10:23:57 -4.794971e+02 -4.887345e+02 0 1
77lm27_m19 536 37 44 -45 -45 left 1 5.000000e-01 /Users/corrado/Dropbox/experiments/surprise_control_exp/stim/6_noeffect.mov 494 22-May-2018 10:24:00 3.345669e+02 3.340226e+01 0 0
77lm27_m19 536 38 76 -45 -45 left 1 5.000000e-01 /Users/corrado/Dropbox/experiments/surprise_control_exp/stim/9_noeffect.mov 385 22-May-2018 10:24:03 -8.868264e+01 -1.147420e+02 0 0
77lm27_m19 536 39 4 -45 -45 left 1 5.000000e-01 /Users/corrado/Dropbox/experiments/surprise_control_exp/stim/1_noeffect.mov 532 22-May-2018 10:24:06 3.180194e+02 3.502862e+02 0 0
77lm27_m19 536 40 77 45 45 right 1 5.000000e-01 /Users/corrado/Dropbox/experiments/surprise_control_exp/stim/9_noeffect.mov 681 22-May-2018 10:24:29 4.263149e+02 3.387119e+02 0 1
77lm27_m19 536 41 31 -45 45 left 1 5.000000e-01 /Users/corrado/Dropbox/experiments/surprise_control_exp/stim/4_noeffect.mov 642 22-May-2018 10:24:32 -4.100968e+02 -1.523800e+02 0 0
77lm27_m19 536 42 3 -45 45 left 1 5.000000e-01 /Users/corrado/Dropbox/experiments/surprise_control_exp/stim/1_noeffect.mov 575 22-May-2018 10:24:35 3.821294e+02 -3.095981e+02 0 0
77lm27_m19 536 43 26 45 -45 right 1 5.000000e-01 /Users/corrado/Dropbox/experiments/surprise_control_exp/stim/4_noeffect.mov 543 22-May-2018 10:24:38 2.322494e+01 3.277032e+02 0 0
77lm27_m19 536 44 18 45 -45 right 1 5.000000e-01 /Users/corrado/Dropbox/experiments/surprise_control_exp/stim/2_noeffect.mov 583 22-May-2018 10:25:04 2.562850e+02 -2.839903e+02 0 1
77lm27_m19 536 45 71 -45 45 left 1 5.000000e-01 /Users/corrado/Dropbox/experiments/surprise_control_exp/stim/9_noeffect.mov 627 22-May-2018 10:25:07 9.170649e+01 -3.525529e+02 0 0
77lm27_m19 536 46 12 -45 -45 left 1 5.000000e-01 /Users/corrado/Dropbox/experiments/surprise_control_exp/stim/2_noeffect.mov 743 22-May-2018 10:25:10 -4.347187e+02 -4.128222e+02 0 0
77lm27_m19 536 47 13 45 45 right 1 5.000000e-01 /Users/corrado/Dropbox/experiments/surprise_control_exp/stim/2_noeffect.mov 745 22-May-2018 10:25:13 -4.126806e+02 1.627743e+02 0 0
77lm27_m19 536 48 35 -45 45 left 1 5.000000e-01 /Users/corrado/Dropbox/experiments/surprise_control_exp/stim/5_noeffect.mov 597 22-May-2018 10:25:30 1.709111e+02 -3.217535e+02 0 1
77lm27_m19 536 49 34 45 -45 right 1 5.000000e-01 /Users/corrado/Dropbox/experiments/surprise_control_exp/stim/5_noeffect.mov 544 22-May-2018 10:25:33 4.001159e+02 3.169501e+02 0 0
77lm27_m19 536 50 59 -45 45 left 1 5.000000e-01 /Users/corrado/Dropbox/experiments/surprise_control_exp/stim/8_noeffect.mov 483 22-May-2018 10:25:36 6.471485e+00 -7.655358e+00 0 0
77lm27_m19 536 51 39 -45 45 left 1 5.000000e-01 /Users/corrado/Dropbox/experiments/surprise_control_exp/stim/5_noeffect.mov 745 22-May-2018 10:25:39 -4.370488e+02 2.621519e+01 0 0
77lm27_m19 536 52 41 45 45 right 1 5.000000e-01 /Users/corrado/Dropbox/experiments/surprise_control_exp/stim/6_noeffect.mov 680 22-May-2018 10:25:55 1.825817e+02 -1.366566e+02 0 1
77lm27_m19 536 53 79 -45 45 left 1 5.000000e-01 /Users/corrado/Dropbox/experiments/surprise_control_exp/stim/9_noeffect.mov 727 22-May-2018 10:25:58 -3.043679e+02 4.332278e+02 0 0
77lm27_m19 536 54 67 -45 45 left 1 5.000000e-01 /Users/corrado/Dropbox/experiments/surprise_control_exp/stim/9_noeffect.mov 594 22-May-2018 10:26:01 -1.805177e+02 -2.840654e+02 0 0
77lm27_m19 536 55 36 -45 -45 left 1 5.000000e-01 /Users/corrado/Dropbox/experiments/surprise_control_exp/stim/5_noeffect.mov 677 22-May-2018 10:26:04 -2.929889e+02 4.017694e+00 0 0
77lm27_m19 536 56 17 45 45 right 1 5.000000e-01 /Users/corrado/Dropbox/experiments/surprise_control_exp/stim/2_noeffect.mov 713 22-May-2018 10:26:30 -1.398993e+02 2.415527e+02 0 1
77lm27_m19 536 57 27 -45 45 left 1 5.000000e-01 /Users/corrado/Dropbox/experiments/surprise_control_exp/stim/4_noeffect.mov 508 22-May-2018 10:26:33 2.205695e+01 -2.166001e+02 0 0
77lm27_m19 536 58 49 45 45 right 1 5.000000e-01 /Users/corrado/Dropbox/experiments/surprise_control_exp/stim/7_noeffect.mov 575 22-May-2018 10:26:36 -1.392077e+01 2.709317e+02 0 0
77lm27_m19 536 59 72 -45 -45 left 1 5.000000e-01 /Users/corrado/Dropbox/experiments/surprise_control_exp/stim/9_noeffect.mov 711 22-May-2018 10:26:39 -4.962335e+02 4.535570e+02 0 0
77lm27_m19 536 60 69 45 45 right 1 5.000000e-01 /Users/corrado/Dropbox/experiments/surprise_control_exp/stim/9_noeffect.mov 647 22-May-2018 10:27:02 -2.878950e+01 -4.516430e+02 0 1
77lm27_m19 536 61 20 -45 -45 left 1 5.000000e-01 /Users/corrado/Dropbox/experiments/surprise_control_exp/stim/2_noeffect.mov 782 22-May-2018 10:27:06 4.696081e+02 1.484942e+02 0 0
77lm27_m19 536 62 52 -45 -45 left 1 5.000000e-01 /Users/corrado/Dropbox/experiments/surprise_control_exp/stim/7_noeffect.mov 760 22-May-2018 10:27:09 -3.245417e+02 -4.065361e+02 0 0
77lm27_m19 536 63 70 45 -45 right 1 5.000000e-01 /Users/corrado/Dropbox/experiments/surprise_control_exp/stim/9_noeffect.mov 575 22-May-2018 10:27:12 3.083961e+02 3.394975e+01 0 0
77lm27_m19 536 64 51 -45 45 left 1 5.000000e-01 /Users/corrado/Dropbox/experiments/surprise_control_exp/stim/7_noeffect.mov 698 22-May-2018 10:27:32 -4.459307e+02 3.167129e+02 0 1
77lm27_m19 536 65 78 45 -45 right 1 5.000000e-01 /Users/corrado/Dropbox/experiments/surprise_control_exp/stim/9_noeffect.mov 675 22-May-2018 10:27:35 -3.777154e+02 -2.819371e+02 0 0
77lm27_m19 536 66 65 45 45 right 1 5.000000e-01 /Users/corrado/Dropbox/experiments/surprise_control_exp/stim/9_noeffect.mov 827 22-May-2018 10:27:38 3.247694e+02 1.932658e+02 0 0
77lm27_m19 536 67 55 -45 45 left 1 5.000000e-01 /Users/corrado/Dropbox/experiments/surprise_control_exp/stim/7_noeffect.mov 709 22-May-2018 10:27:41 4.760635e+02 -1.156865e+02 0 0
77lm27_m19 536 68 30 45 -45 right 1 5.000000e-01 /Users/corrado/Dropbox/experiments/surprise_control_exp/stim/4_noeffect.mov 732 22-May-2018 10:27:59 -4.416268e+02 8.701576e+01 0 1
77lm27_m19 536 69 28 -45 -45 left 1 5.000000e-01 /Users/corrado/Dropbox/experiments/surprise_control_exp/stim/4_noeffect.mov 792 22-May-2018 10:28:02 -8.089398e+01 -3.813785e+01 0 0
77lm27_m19 536 70 56 -45 -45 left 1 5.000000e-01 /Users/corrado/Dropbox/experiments/surprise_control_exp/stim/7_noeffect.mov 676 22-May-2018 10:28:05 -6.762674e+01 -4.399727e+02 0 0
77lm27_m19 536 71 75 -45 45 left 1 5.000000e-01 /Users/corrado/Dropbox/experiments/surprise_control_exp/stim/9_noeffect.mov 676 22-May-2018 10:28:09 4.134211e+02 2.312214e+02 0 0
77lm27_m19 536 72 42 45 -45 right 1 5.000000e-01 /Users/corrado/Dropbox/experiments/surprise_control_exp/stim/6_noeffect.mov 648 22-May-2018 10:28:24 -5.987571e+01 3.971282e+02 0 1
77lm27_m19 536 73 24 -45 -45 left 1 5.000000e-01 /Users/corrado/Dropbox/experiments/surprise_control_exp/stim/3_noeffect.mov 660 22-May-2018 10:28:27 4.352876e+02 -4.639851e+02 0 0
77lm27_m19 536 74 43 -45 45 left 1 5.000000e-01 /Users/corrado/Dropbox/experiments/surprise_control_exp/stim/6_noeffect.mov 642 22-May-2018 10:28:30 -4.997324e+02 -1.148385e+02 0 0
77lm27_m19 536 75 64 -45 -45 left 1 5.000000e-01 /Users/corrado/Dropbox/experiments/surprise_control_exp/stim/8_noeffect.mov 616 22-May-2018 10:28:33 4.524809e+02 -4.283432e+02 0 0
77lm27_m19 536 76 32 -45 -45 left 1 5.000000e-01 /Users/corrado/Dropbox/experiments/surprise_control_exp/stim/4_noeffect.mov 1281 22-May-2018 10:28:52 -2.761773e+02 -4.221411e+02 0 1
77lm27_m19 536 77 5 45 45 right 1 5.000000e-01 /Users/corrado/Dropbox/experiments/surprise_control_exp/stim/1_noeffect.mov 725 22-May-2018 10:28:55 -3.278844e+02 1.450964e+02 0 0
77lm27_m19 536 78 7 -45 45 left 1 5.000000e-01 /Users/corrado/Dropbox/experiments/surprise_control_exp/stim/1_noeffect.mov 695 22-May-2018 10:28:58 4.975538e+02 2.925289e+02 0 0
77lm27_m19 536 79 80 -45 -45 left 1 5.000000e-01 /Users/corrado/Dropbox/experiments/surprise_control_exp/stim/9_noeffect.mov 543 22-May-2018 10:29:01 6.596727e+01 -4.559910e+02 0 0
77lm27_m19 536 80 14 45 -45 right 1 5.000000e-01 /Users/corrado/Dropbox/experiments/surprise_control_exp/stim/2_noeffect.mov 727 22-May-2018 10:29:04 -2.785237e+02 4.277936e+02 0 0
