subject_name subjectNumber iTrial unshuffled_trial targetOrientation flankersOrientation response correct onscreen_stim_duration magicShows rt date time_of_day deltaX deltaY surpriseClip isClipTrial
00LM06_M29 5 1 6 45 -45 right 1 5.000000e-01 /Users/lab/Documents/magic_control_exp/stim/1_noeffect.mov 482 18-Sep-2017 09:37:48 8.285520e+01 -4.234859e+02 0 1
00LM06_M29 5 2 11 -45 45 left 1 5.000000e-01 /Users/lab/Documents/magic_control_exp/stim/2_noeffect.mov 433 18-Sep-2017 09:37:51 -4.173099e+02 -3.273745e+02 0 0
00LM06_M29 5 3 31 -45 45 left 1 5.000000e-01 /Users/lab/Documents/magic_control_exp/stim/4_noeffect.mov 465 18-Sep-2017 09:37:54 -7.009120e+01 3.205122e+02 0 0
00LM06_M29 5 4 63 -45 45 left 1 5.000000e-01 /Users/lab/Documents/magic_control_exp/stim/8_noeffect.mov 545 18-Sep-2017 09:38:16 -1.449411e+02 3.889312e+02 0 1
00LM06_M29 5 5 61 45 45 right 1 5.000000e-01 /Users/lab/Documents/magic_control_exp/stim/8_noeffect.mov 451 18-Sep-2017 09:38:19 1.552997e+02 4.356630e+02 0 0
00LM06_M29 5 6 68 -45 -45 left 1 5.000000e-01 /Users/lab/Documents/magic_control_exp/stim/9_noeffect.mov 475 18-Sep-2017 09:38:21 4.336211e+02 -2.987966e+00 0 0
00LM06_M29 5 7 16 -45 -45 left 1 5.000000e-01 /Users/lab/Documents/magic_control_exp/stim/2_noeffect.mov 548 18-Sep-2017 09:38:24 -4.176374e+02 2.510088e+01 0 0
00LM06_M29 5 8 39 -45 45 left 1 5.000000e-01 /Users/lab/Documents/magic_control_exp/stim/5_noeffect.mov 514 18-Sep-2017 09:38:41 2.029409e+01 6.088964e+01 0 1
00LM06_M29 5 9 13 45 45 right 1 5.000000e-01 /Users/lab/Documents/magic_control_exp/stim/2_noeffect.mov 382 18-Sep-2017 09:38:44 2.847148e+02 -3.228309e+02 0 0
00LM06_M29 5 10 3 -45 45 left 1 5.000000e-01 /Users/lab/Documents/magic_control_exp/stim/1_noeffect.mov 470 18-Sep-2017 09:38:47 4.501635e+02 -2.865966e+02 0 0
00LM06_M29 5 11 42 45 -45 right 1 5.000000e-01 /Users/lab/Documents/magic_control_exp/stim/6_noeffect.mov 664 18-Sep-2017 09:38:50 -3.107491e+02 1.572833e+02 0 0
00LM06_M29 5 12 47 -45 45 left 1 5.000000e-01 /Users/lab/Documents/magic_control_exp/stim/6_noeffect.mov 478 18-Sep-2017 09:39:05 1.495755e+02 -4.491366e+02 0 1
00LM06_M29 5 13 44 -45 -45 left 1 5.000000e-01 /Users/lab/Documents/magic_control_exp/stim/6_noeffect.mov 454 18-Sep-2017 09:39:08 -2.027253e+02 -3.581809e+02 0 0
00LM06_M29 5 14 77 45 45 right 1 5.000000e-01 /Users/lab/Documents/magic_control_exp/stim/9_noeffect.mov 431 18-Sep-2017 09:39:11 -3.075745e+02 -3.712759e+02 0 0
00LM06_M29 5 15 67 -45 45 left 1 5.000000e-01 /Users/lab/Documents/magic_control_exp/stim/9_noeffect.mov 489 18-Sep-2017 09:39:14 3.461838e+02 -4.214965e+02 0 0
00LM06_M29 5 16 40 -45 -45 left 1 5.000000e-01 /Users/lab/Documents/magic_control_exp/stim/5_noeffect.mov 499 18-Sep-2017 09:39:31 -2.926203e+01 4.072446e+02 0 1
00LM06_M29 5 17 8 -45 -45 left 1 5.000000e-01 /Users/lab/Documents/magic_control_exp/stim/1_noeffect.mov 408 18-Sep-2017 09:39:34 5.224780e+01 -1.141040e+02 0 0
00LM06_M29 5 18 12 -45 -45 right 0 5.000000e-01 /Users/lab/Documents/magic_control_exp/stim/2_noeffect.mov 564 18-Sep-2017 09:39:37 -4.581442e+02 -2.173112e+02 0 0
00LM06_M29 5 19 50 45 -45 right 1 5.000000e-01 /Users/lab/Documents/magic_control_exp/stim/7_noeffect.mov 581 18-Sep-2017 09:39:39 4.627116e+02 -1.546491e+02 0 0
00LM06_M29 5 20 60 -45 -45 left 1 5.000000e-01 /Users/lab/Documents/magic_control_exp/stim/8_noeffect.mov 499 18-Sep-2017 09:40:02 3.861874e+02 -2.691190e+02 0 1
00LM06_M29 5 21 74 45 -45 right 1 5.000000e-01 /Users/lab/Documents/magic_control_exp/stim/9_noeffect.mov 517 18-Sep-2017 09:40:04 9.827493e+01 -2.909171e+02 0 0
00LM06_M29 5 22 45 45 45 right 1 5.000000e-01 /Users/lab/Documents/magic_control_exp/stim/6_noeffect.mov 460 18-Sep-2017 09:40:07 6.294944e+01 -4.532570e+02 0 0
00LM06_M29 5 23 48 -45 -45 left 1 5.000000e-01 /Users/lab/Documents/magic_control_exp/stim/6_noeffect.mov 416 18-Sep-2017 09:40:10 -2.258420e+02 1.623537e+02 0 0
00LM06_M29 5 24 27 -45 45 left 1 5.000000e-01 /Users/lab/Documents/magic_control_exp/stim/4_noeffect.mov 513 18-Sep-2017 09:40:28 2.363308e+02 -2.999214e+02 0 1
00LM06_M29 5 25 46 45 -45 right 1 5.000000e-01 /Users/lab/Documents/magic_control_exp/stim/6_noeffect.mov 546 18-Sep-2017 09:40:31 -3.765038e+02 2.170593e+02 0 0
00LM06_M29 5 26 55 -45 45 left 1 5.000000e-01 /Users/lab/Documents/magic_control_exp/stim/7_noeffect.mov 475 18-Sep-2017 09:40:33 3.922174e+02 3.270884e+02 0 0
00LM06_M29 5 27 58 45 -45 right 1 5.000000e-01 /Users/lab/Documents/magic_control_exp/stim/8_noeffect.mov 563 18-Sep-2017 09:40:36 2.925340e+02 2.963563e+02 0 0
00LM06_M29 5 28 4 -45 -45 left 1 5.000000e-01 /Users/lab/Documents/magic_control_exp/stim/1_noeffect.mov 496 18-Sep-2017 09:41:03 -2.316339e+02 -1.788451e+02 0 1
00LM06_M29 5 29 21 45 45 right 1 5.000000e-01 /Users/lab/Documents/magic_control_exp/stim/3_noeffect.mov 494 18-Sep-2017 09:41:05 -3.063297e+02 -2.895869e+02 0 0
00LM06_M29 5 30 19 -45 45 left 1 5.000000e-01 /Users/lab/Documents/magic_control_exp/stim/2_noeffect.mov 476 18-Sep-2017 09:41:08 -4.260746e+02 2.987491e+01 0 0
00LM06_M29 5 31 41 45 45 right 1 5.000000e-01 /Users/lab/Documents/magic_control_exp/stim/6_noeffect.mov 467 18-Sep-2017 09:41:11 1.349300e+02 -2.158809e+02 0 0
00LM06_M29 5 32 14 45 -45 right 1 5.000000e-01 /Users/lab/Documents/magic_control_exp/stim/2_noeffect.mov 512 18-Sep-2017 09:41:37 -1.636112e+02 1.585724e+02 0 1
00LM06_M29 5 33 65 45 45 right 1 5.000000e-01 /Users/lab/Documents/magic_control_exp/stim/9_noeffect.mov 450 18-Sep-2017 09:41:40 -3.832928e+02 2.303393e+02 0 0
00LM06_M29 5 34 53 45 45 right 1 5.000000e-01 /Users/lab/Documents/magic_control_exp/stim/7_noeffect.mov 418 18-Sep-2017 09:41:43 -2.562903e+02 3.571796e+02 0 0
00LM06_M29 5 35 20 -45 -45 left 1 5.000000e-01 /Users/lab/Documents/magic_control_exp/stim/2_noeffect.mov 452 18-Sep-2017 09:41:45 -3.947594e+02 1.632612e+02 0 0
00LM06_M29 5 36 17 45 45 right 1 5.000000e-01 /Users/lab/Documents/magic_control_exp/stim/2_noeffect.mov 435 18-Sep-2017 09:42:11 -4.596100e+02 -2.094024e+02 0 1
00LM06_M29 5 37 33 45 45 right 1 5.000000e-01 /Users/lab/Documents/magic_control_exp/stim/5_noeffect.mov 445 18-Sep-2017 09:42:14 2.947299e+02 2.538224e+02 0 0
00LM06_M29 5 38 24 -45 -45 left 1 5.000000e-01 /Users/lab/Documents/magic_control_exp/stim/3_noeffect.mov 458 18-Sep-2017 09:42:17 -2.768868e+02 4.565523e+02 0 0
00LM06_M29 5 39 28 -45 -45 left 1 5.000000e-01 /Users/lab/Documents/magic_control_exp/stim/4_noeffect.mov 468 18-Sep-2017 09:42:20 2.425852e+00 -4.312855e+02 0 0
00LM06_M29 5 40 56 -45 -45 left 1 5.000000e-01 /Users/lab/Documents/magic_control_exp/stim/7_noeffect.mov 489 18-Sep-2017 09:42:40 2.993096e+01 -4.038309e+02 0 1
00LM06_M29 5 41 69 45 45 right 1 5.000000e-01 /Users/lab/Documents/magic_control_exp/stim/9_noeffect.mov 417 18-Sep-2017 09:42:42 -3.376327e+02 -3.058709e+01 0 0
00LM06_M29 5 42 38 45 -45 right 1 5.000000e-01 /Users/lab/Documents/magic_control_exp/stim/5_noeffect.mov 546 18-Sep-2017 09:42:45 7.342926e+01 -3.396527e+02 0 0
00LM06_M29 5 43 51 -45 45 left 1 5.000000e-01 /Users/lab/Documents/magic_control_exp/stim/7_noeffect.mov 478 18-Sep-2017 09:42:48 5.780558e-01 -1.994515e+02 0 0
00LM06_M29 5 44 30 45 -45 right 1 5.000000e-01 /Users/lab/Documents/magic_control_exp/stim/4_noeffect.mov 462 18-Sep-2017 09:43:06 4.156908e+01 1.046791e+02 0 1
00LM06_M29 5 45 18 45 -45 right 1 5.000000e-01 /Users/lab/Documents/magic_control_exp/stim/2_noeffect.mov 564 18-Sep-2017 09:43:09 -4.549811e+02 3.408170e+02 0 0
00LM06_M29 5 46 80 -45 -45 left 1 5.000000e-01 /Users/lab/Documents/magic_control_exp/stim/9_noeffect.mov 460 18-Sep-2017 09:43:11 3.225733e+01 4.005584e+02 0 0
00LM06_M29 5 47 34 45 -45 right 1 5.000000e-01 /Users/lab/Documents/magic_control_exp/stim/5_noeffect.mov 562 18-Sep-2017 09:43:14 -3.481931e+02 -4.780155e+02 0 0
00LM06_M29 5 48 70 45 -45 right 1 5.000000e-01 /Users/lab/Documents/magic_control_exp/stim/9_noeffect.mov 533 18-Sep-2017 09:43:37 -4.736555e+02 -3.823980e+02 0 1
00LM06_M29 5 49 71 -45 45 left 1 5.000000e-01 /Users/lab/Documents/magic_control_exp/stim/9_noeffect.mov 448 18-Sep-2017 09:43:40 -4.263161e+02 -1.920592e+02 0 0
00LM06_M29 5 50 59 -45 45 left 1 5.000000e-01 /Users/lab/Documents/magic_control_exp/stim/8_noeffect.mov 531 18-Sep-2017 09:43:43 -3.217306e+02 3.703424e+02 0 0
00LM06_M29 5 51 10 45 -45 right 1 5.000000e-01 /Users/lab/Documents/magic_control_exp/stim/2_noeffect.mov 528 18-Sep-2017 09:43:46 -1.766805e+02 -1.472241e+02 0 0
00LM06_M29 5 52 76 -45 -45 left 1 5.000000e-01 /Users/lab/Documents/magic_control_exp/stim/9_noeffect.mov 613 18-Sep-2017 09:44:09 -3.538756e+02 -1.878024e+02 0 1
00LM06_M29 5 53 7 -45 45 left 1 5.000000e-01 /Users/lab/Documents/magic_control_exp/stim/1_noeffect.mov 530 18-Sep-2017 09:44:11 -4.091696e+02 -4.269406e+01 0 0
00LM06_M29 5 54 73 45 45 right 1 5.000000e-01 /Users/lab/Documents/magic_control_exp/stim/9_noeffect.mov 465 18-Sep-2017 09:44:14 4.159842e+02 1.930720e+02 0 0
00LM06_M29 5 55 62 45 -45 right 1 5.000000e-01 /Users/lab/Documents/magic_control_exp/stim/8_noeffect.mov 529 18-Sep-2017 09:44:17 2.352466e+02 3.299970e+02 0 0
00LM06_M29 5 56 15 -45 45 left 1 5.000000e-01 /Users/lab/Documents/magic_control_exp/stim/2_noeffect.mov 546 18-Sep-2017 09:44:43 -4.647324e+02 -2.852911e+02 0 1
00LM06_M29 5 57 5 45 45 right 1 5.000000e-01 /Users/lab/Documents/magic_control_exp/stim/1_noeffect.mov 510 18-Sep-2017 09:44:46 -4.974436e+02 4.963896e+02 0 0
00LM06_M29 5 58 2 45 -45 right 1 5.000000e-01 /Users/lab/Documents/magic_control_exp/stim/1_noeffect.mov 564 18-Sep-2017 09:44:49 -4.685334e+00 -1.207894e+02 0 0
00LM06_M29 5 59 52 -45 -45 left 1 5.000000e-01 /Users/lab/Documents/magic_control_exp/stim/7_noeffect.mov 453 18-Sep-2017 09:44:52 -1.455313e+02 3.752363e+02 0 0
00LM06_M29 5 60 79 -45 45 left 1 5.000000e-01 /Users/lab/Documents/magic_control_exp/stim/9_noeffect.mov 513 18-Sep-2017 09:45:14 1.660659e+02 4.968715e+02 0 1
00LM06_M29 5 61 78 45 -45 right 1 5.000000e-01 /Users/lab/Documents/magic_control_exp/stim/9_noeffect.mov 578 18-Sep-2017 09:45:17 4.723236e+02 3.468933e+02 0 0
00LM06_M29 5 62 75 -45 45 left 1 5.000000e-01 /Users/lab/Documents/magic_control_exp/stim/9_noeffect.mov 580 18-Sep-2017 09:45:20 4.938057e+02 -4.272892e+02 0 0
00LM06_M29 5 63 49 45 45 right 1 5.000000e-01 /Users/lab/Documents/magic_control_exp/stim/7_noeffect.mov 403 18-Sep-2017 09:45:23 4.673275e+02 2.242140e+02 0 0
00LM06_M29 5 64 37 45 45 NORESP 0 5.000000e-01 /Users/lab/Documents/magic_control_exp/stim/5_noeffect.mov 2998 18-Sep-2017 09:45:43 -3.159442e+00 7.462092e+01 0 1
00LM06_M29 5 65 22 45 -45 right 1 5.000000e-01 /Users/lab/Documents/magic_control_exp/stim/3_noeffect.mov 512 18-Sep-2017 09:45:45 -4.114509e+02 -2.363526e+01 0 0
00LM06_M29 5 66 25 45 45 right 1 5.000000e-01 /Users/lab/Documents/magic_control_exp/stim/4_noeffect.mov 459 18-Sep-2017 09:45:48 4.174703e+02 2.445458e+02 0 0
00LM06_M29 5 67 54 45 -45 right 1 5.000000e-01 /Users/lab/Documents/magic_control_exp/stim/7_noeffect.mov 483 18-Sep-2017 09:45:51 -1.007924e+02 2.478507e+02 0 0
00LM06_M29 5 68 66 45 -45 right 1 5.000000e-01 /Users/lab/Documents/magic_control_exp/stim/9_noeffect.mov 563 18-Sep-2017 09:46:14 -3.791926e+02 -3.760987e+01 0 1
00LM06_M29 5 69 29 45 45 right 1 5.000000e-01 /Users/lab/Documents/magic_control_exp/stim/4_noeffect.mov 481 18-Sep-2017 09:46:17 1.302221e+02 4.835598e+02 0 0
00LM06_M29 5 70 57 45 45 right 1 5.000000e-01 /Users/lab/Documents/magic_control_exp/stim/8_noeffect.mov 514 18-Sep-2017 09:46:19 -3.783872e+02 4.921508e+02 0 0
00LM06_M29 5 71 43 -45 45 left 1 5.000000e-01 /Users/lab/Documents/magic_control_exp/stim/6_noeffect.mov 563 18-Sep-2017 09:46:22 -2.560686e+02 -3.825586e+02 0 0
00LM06_M29 5 72 1 45 45 right 1 5.000000e-01 /Users/lab/Documents/magic_control_exp/stim/1_noeffect.mov 530 18-Sep-2017 09:46:49 -2.936905e+02 -3.798640e+02 0 1
00LM06_M29 5 73 32 -45 -45 left 1 5.000000e-01 /Users/lab/Documents/magic_control_exp/stim/4_noeffect.mov 464 18-Sep-2017 09:46:51 4.287302e+02 1.442486e+02 0 0
00LM06_M29 5 74 26 45 -45 right 1 5.000000e-01 /Users/lab/Documents/magic_control_exp/stim/4_noeffect.mov 458 18-Sep-2017 09:46:54 -2.463941e+02 -5.663965e+01 0 0
00LM06_M29 5 75 9 45 45 right 1 5.000000e-01 /Users/lab/Documents/magic_control_exp/stim/2_noeffect.mov 693 18-Sep-2017 09:46:57 -4.653481e+02 4.929825e+02 0 0
00LM06_M29 5 76 36 -45 -45 left 1 5.000000e-01 /Users/lab/Documents/magic_control_exp/stim/5_noeffect.mov 579 18-Sep-2017 09:47:15 1.530533e+02 -1.462691e+02 0 1
00LM06_M29 5 77 35 -45 45 right 0 5.000000e-01 /Users/lab/Documents/magic_control_exp/stim/5_noeffect.mov 418 18-Sep-2017 09:47:17 -1.427116e+02 3.455368e+02 0 0
00LM06_M29 5 78 72 -45 -45 left 1 5.000000e-01 /Users/lab/Documents/magic_control_exp/stim/9_noeffect.mov 493 18-Sep-2017 09:47:20 -6.566913e+01 -4.633924e+02 0 0
00LM06_M29 5 79 23 -45 45 left 1 5.000000e-01 /Users/lab/Documents/magic_control_exp/stim/3_noeffect.mov 530 18-Sep-2017 09:47:23 -5.126402e+01 -2.132984e+02 0 0
00LM06_M29 5 80 64 -45 -45 left 1 5.000000e-01 /Users/lab/Documents/magic_control_exp/stim/8_noeffect.mov 415 18-Sep-2017 09:47:26 1.230818e+00 -3.897178e+02 0 0
