subject_name subjectNumber iTrial unshuffled_trial targetOrientation flankersOrientation response correct onscreen_stim_duration magicShows rt date time_of_day deltaX deltaY surpriseClip isClipTrial
29gs27_m19 539 1 48 -45 -45 left 1 5.000000e-01 /Users/corrado/Dropbox/experiments/surprise_control_exp/stim/6_noeffect.mov 1012 22-May-2018 10:53:25 1.668036e+02 -8.002151e+01 0 1
29gs27_m19 539 2 54 45 -45 right 1 5.000000e-01 /Users/corrado/Dropbox/experiments/surprise_control_exp/stim/7_noeffect.mov 331 22-May-2018 10:53:27 2.035572e+02 4.426628e+02 0 0
29gs27_m19 539 3 9 45 45 right 1 5.000000e-01 /Users/corrado/Dropbox/experiments/surprise_control_exp/stim/2_noeffect.mov 405 22-May-2018 10:53:30 -2.478697e+02 -3.117938e+02 0 0
29gs27_m19 539 4 16 -45 -45 left 1 5.000000e-01 /Users/corrado/Dropbox/experiments/surprise_control_exp/stim/2_noeffect.mov 530 22-May-2018 10:53:56 -3.833628e+02 2.503559e+02 0 1
29gs27_m19 539 5 42 45 -45 right 1 5.000000e-01 /Users/corrado/Dropbox/experiments/surprise_control_exp/stim/6_noeffect.mov 576 22-May-2018 10:53:59 4.746048e+02 1.400361e+02 0 0
29gs27_m19 539 6 26 45 -45 right 1 5.000000e-01 /Users/corrado/Dropbox/experiments/surprise_control_exp/stim/4_noeffect.mov 484 22-May-2018 10:54:02 -2.929372e+01 1.877950e+02 0 0
29gs27_m19 539 7 41 45 45 right 1 5.000000e-01 /Users/corrado/Dropbox/experiments/surprise_control_exp/stim/6_noeffect.mov 446 22-May-2018 10:54:05 -4.489565e+02 3.479425e+01 0 0
29gs27_m19 539 8 20 -45 -45 left 1 5.000000e-01 /Users/corrado/Dropbox/experiments/surprise_control_exp/stim/2_noeffect.mov 435 22-May-2018 10:54:31 2.201973e+02 1.501856e+02 0 1
29gs27_m19 539 9 76 -45 -45 left 1 5.000000e-01 /Users/corrado/Dropbox/experiments/surprise_control_exp/stim/9_noeffect.mov 390 22-May-2018 10:54:34 -1.058019e+02 1.808160e+02 0 0
29gs27_m19 539 10 53 45 45 right 1 5.000000e-01 /Users/corrado/Dropbox/experiments/surprise_control_exp/stim/7_noeffect.mov 398 22-May-2018 10:54:37 -2.788085e+01 -4.605451e+02 0 0
29gs27_m19 539 11 34 45 -45 right 1 5.000000e-01 /Users/corrado/Dropbox/experiments/surprise_control_exp/stim/5_noeffect.mov 544 22-May-2018 10:54:39 -2.456094e+02 4.109337e+02 0 0
29gs27_m19 539 12 74 45 -45 right 1 5.000000e-01 /Users/corrado/Dropbox/experiments/surprise_control_exp/stim/9_noeffect.mov 596 22-May-2018 10:55:02 -3.116849e+02 -4.518708e+02 0 1
29gs27_m19 539 13 61 45 45 right 1 5.000000e-01 /Users/corrado/Dropbox/experiments/surprise_control_exp/stim/8_noeffect.mov 389 22-May-2018 10:55:05 2.858120e+02 1.679805e+02 0 0
29gs27_m19 539 14 49 45 45 right 1 5.000000e-01 /Users/corrado/Dropbox/experiments/surprise_control_exp/stim/7_noeffect.mov 423 22-May-2018 10:55:08 -3.370091e+02 -4.181452e+02 0 0
29gs27_m19 539 15 55 -45 45 left 1 5.000000e-01 /Users/corrado/Dropbox/experiments/surprise_control_exp/stim/7_noeffect.mov 509 22-May-2018 10:55:11 -4.334311e+02 2.685366e+02 0 0
29gs27_m19 539 16 7 -45 45 left 1 5.000000e-01 /Users/corrado/Dropbox/experiments/surprise_control_exp/stim/1_noeffect.mov 546 22-May-2018 10:55:37 3.197795e+02 3.425872e+02 0 1
29gs27_m19 539 17 52 -45 -45 left 1 5.000000e-01 /Users/corrado/Dropbox/experiments/surprise_control_exp/stim/7_noeffect.mov 496 22-May-2018 10:55:40 -3.572947e+02 3.769283e+02 0 0
29gs27_m19 539 18 13 45 45 right 1 5.000000e-01 /Users/corrado/Dropbox/experiments/surprise_control_exp/stim/2_noeffect.mov 396 22-May-2018 10:55:43 -4.358130e+01 -1.994331e+02 0 0
29gs27_m19 539 19 14 45 -45 right 1 5.000000e-01 /Users/corrado/Dropbox/experiments/surprise_control_exp/stim/2_noeffect.mov 549 22-May-2018 10:55:46 -2.736192e+02 4.134845e+02 0 0
29gs27_m19 539 20 28 -45 -45 left 1 5.000000e-01 /Users/corrado/Dropbox/experiments/surprise_control_exp/stim/4_noeffect.mov 513 22-May-2018 10:56:04 3.010366e+02 -4.716838e+02 0 1
29gs27_m19 539 21 80 -45 -45 left 1 5.000000e-01 /Users/corrado/Dropbox/experiments/surprise_control_exp/stim/9_noeffect.mov 424 22-May-2018 10:56:07 -2.596908e+02 -3.890151e+02 0 0
29gs27_m19 539 22 11 -45 45 right 0 5.000000e-01 /Users/corrado/Dropbox/experiments/surprise_control_exp/stim/2_noeffect.mov 377 22-May-2018 10:56:09 4.556190e+02 -3.481184e+02 0 0
29gs27_m19 539 23 68 -45 -45 left 1 5.000000e-01 /Users/corrado/Dropbox/experiments/surprise_control_exp/stim/9_noeffect.mov 373 22-May-2018 10:56:12 2.413957e+00 1.234488e+00 0 0
29gs27_m19 539 24 67 -45 45 left 1 5.000000e-01 /Users/corrado/Dropbox/experiments/surprise_control_exp/stim/9_noeffect.mov 631 22-May-2018 10:56:35 -3.410802e+02 1.018416e+02 0 1
29gs27_m19 539 25 5 45 45 right 1 5.000000e-01 /Users/corrado/Dropbox/experiments/surprise_control_exp/stim/1_noeffect.mov 414 22-May-2018 10:56:38 -3.208440e+02 -1.000451e+02 0 0
29gs27_m19 539 26 46 45 -45 right 1 5.000000e-01 /Users/corrado/Dropbox/experiments/surprise_control_exp/stim/6_noeffect.mov 575 22-May-2018 10:56:41 -2.448816e+02 -2.155054e+02 0 0
29gs27_m19 539 27 51 -45 45 left 1 5.000000e-01 /Users/corrado/Dropbox/experiments/surprise_control_exp/stim/7_noeffect.mov 576 22-May-2018 10:56:44 -3.683928e+02 2.403931e+02 0 0
29gs27_m19 539 28 6 45 -45 right 1 5.000000e-01 /Users/corrado/Dropbox/experiments/surprise_control_exp/stim/1_noeffect.mov 613 22-May-2018 10:57:10 2.758656e+02 -3.171373e+02 0 1
29gs27_m19 539 29 44 -45 -45 left 1 5.000000e-01 /Users/corrado/Dropbox/experiments/surprise_control_exp/stim/6_noeffect.mov 360 22-May-2018 10:57:13 -4.717186e+02 4.610995e+02 0 0
29gs27_m19 539 30 39 -45 45 left 1 5.000000e-01 /Users/corrado/Dropbox/experiments/surprise_control_exp/stim/5_noeffect.mov 433 22-May-2018 10:57:16 -2.452380e+02 2.589918e+02 0 0
29gs27_m19 539 31 78 45 -45 right 1 5.000000e-01 /Users/corrado/Dropbox/experiments/surprise_control_exp/stim/9_noeffect.mov 550 22-May-2018 10:57:19 -4.931404e+01 -4.879823e+02 0 0
29gs27_m19 539 32 33 45 45 right 1 5.000000e-01 /Users/corrado/Dropbox/experiments/surprise_control_exp/stim/5_noeffect.mov 494 22-May-2018 10:57:36 -4.116149e+02 -3.190355e+02 0 1
29gs27_m19 539 33 17 45 45 right 1 5.000000e-01 /Users/corrado/Dropbox/experiments/surprise_control_exp/stim/2_noeffect.mov 360 22-May-2018 10:57:39 2.383077e+02 -1.734792e+02 0 0
29gs27_m19 539 34 25 45 45 right 1 5.000000e-01 /Users/corrado/Dropbox/experiments/surprise_control_exp/stim/4_noeffect.mov 452 22-May-2018 10:57:42 1.343364e+02 -4.402161e+02 0 0
29gs27_m19 539 35 12 -45 -45 left 1 5.000000e-01 /Users/corrado/Dropbox/experiments/surprise_control_exp/stim/2_noeffect.mov 429 22-May-2018 10:57:44 4.911192e+02 -5.873899e+01 0 0
29gs27_m19 539 36 62 45 -45 right 1 5.000000e-01 /Users/corrado/Dropbox/experiments/surprise_control_exp/stim/8_noeffect.mov 546 22-May-2018 10:58:06 -3.344774e+02 -4.017192e+02 0 1
29gs27_m19 539 37 59 -45 45 left 1 5.000000e-01 /Users/corrado/Dropbox/experiments/surprise_control_exp/stim/8_noeffect.mov 476 22-May-2018 10:58:09 1.010477e+02 8.185757e+00 0 0
29gs27_m19 539 38 79 -45 45 left 1 5.000000e-01 /Users/corrado/Dropbox/experiments/surprise_control_exp/stim/9_noeffect.mov 549 22-May-2018 10:58:12 -3.148715e+02 2.735308e+02 0 0
29gs27_m19 539 39 21 45 45 right 1 5.000000e-01 /Users/corrado/Dropbox/experiments/surprise_control_exp/stim/3_noeffect.mov 395 22-May-2018 10:58:15 -2.109669e+02 1.168521e+02 0 0
29gs27_m19 539 40 71 -45 45 left 1 5.000000e-01 /Users/corrado/Dropbox/experiments/surprise_control_exp/stim/9_noeffect.mov 613 22-May-2018 10:58:38 -1.657303e+02 3.173854e+02 0 1
29gs27_m19 539 41 10 45 -45 right 1 5.000000e-01 /Users/corrado/Dropbox/experiments/surprise_control_exp/stim/2_noeffect.mov 526 22-May-2018 10:58:41 -4.622633e+02 1.217088e+01 0 0
29gs27_m19 539 42 65 45 45 right 1 5.000000e-01 /Users/corrado/Dropbox/experiments/surprise_control_exp/stim/9_noeffect.mov 474 22-May-2018 10:58:44 -3.802163e+02 -4.232303e+02 0 0
29gs27_m19 539 43 27 -45 45 left 1 5.000000e-01 /Users/corrado/Dropbox/experiments/surprise_control_exp/stim/4_noeffect.mov 473 22-May-2018 10:58:46 1.683450e+02 -1.745354e+02 0 0
29gs27_m19 539 44 45 45 45 right 1 5.000000e-01 /Users/corrado/Dropbox/experiments/surprise_control_exp/stim/6_noeffect.mov 713 22-May-2018 10:59:02 -1.998306e+02 3.433071e+02 0 1
29gs27_m19 539 45 43 -45 45 left 1 5.000000e-01 /Users/corrado/Dropbox/experiments/surprise_control_exp/stim/6_noeffect.mov 417 22-May-2018 10:59:05 -1.445847e+02 3.549576e+02 0 0
29gs27_m19 539 46 66 45 -45 right 1 5.000000e-01 /Users/corrado/Dropbox/experiments/surprise_control_exp/stim/9_noeffect.mov 489 22-May-2018 10:59:08 -3.106089e+02 -2.567713e+02 0 0
29gs27_m19 539 47 24 -45 -45 left 1 5.000000e-01 /Users/corrado/Dropbox/experiments/surprise_control_exp/stim/3_noeffect.mov 389 22-May-2018 10:59:10 1.848144e+02 -2.069689e+02 0 0
29gs27_m19 539 48 69 45 45 right 1 5.000000e-01 /Users/corrado/Dropbox/experiments/surprise_control_exp/stim/9_noeffect.mov 664 22-May-2018 10:59:33 -4.629035e+02 -2.619575e+02 0 1
29gs27_m19 539 49 32 -45 -45 left 1 5.000000e-01 /Users/corrado/Dropbox/experiments/surprise_control_exp/stim/4_noeffect.mov 438 22-May-2018 10:59:36 4.218094e+02 -4.825445e+02 0 0
29gs27_m19 539 50 31 -45 45 left 1 5.000000e-01 /Users/corrado/Dropbox/experiments/surprise_control_exp/stim/4_noeffect.mov 542 22-May-2018 10:59:39 -2.428524e+02 3.551486e+02 0 0
29gs27_m19 539 51 22 45 -45 right 1 5.000000e-01 /Users/corrado/Dropbox/experiments/surprise_control_exp/stim/3_noeffect.mov 425 22-May-2018 10:59:42 2.668452e+02 9.959416e+01 0 0
29gs27_m19 539 52 47 -45 45 right 0 5.000000e-01 /Users/corrado/Dropbox/experiments/surprise_control_exp/stim/6_noeffect.mov 662 22-May-2018 10:59:57 -3.366842e+02 4.940641e+02 0 1
29gs27_m19 539 53 38 45 -45 right 1 5.000000e-01 /Users/corrado/Dropbox/experiments/surprise_control_exp/stim/5_noeffect.mov 558 22-May-2018 11:00:00 3.635075e+02 2.681381e+02 0 0
29gs27_m19 539 54 8 -45 -45 left 1 5.000000e-01 /Users/corrado/Dropbox/experiments/surprise_control_exp/stim/1_noeffect.mov 387 22-May-2018 11:00:03 -3.408443e+02 -3.760820e+02 0 0
29gs27_m19 539 55 30 45 -45 right 1 5.000000e-01 /Users/corrado/Dropbox/experiments/surprise_control_exp/stim/4_noeffect.mov 542 22-May-2018 11:00:06 4.742847e+02 7.597159e+01 0 0
29gs27_m19 539 56 18 45 -45 right 1 5.000000e-01 /Users/corrado/Dropbox/experiments/surprise_control_exp/stim/2_noeffect.mov 476 22-May-2018 11:00:32 -1.891337e+02 5.306996e+01 0 1
29gs27_m19 539 57 50 45 -45 right 1 5.000000e-01 /Users/corrado/Dropbox/experiments/surprise_control_exp/stim/7_noeffect.mov 427 22-May-2018 11:00:35 -1.208455e+01 -4.191658e+02 0 0
29gs27_m19 539 58 35 -45 45 left 1 5.000000e-01 /Users/corrado/Dropbox/experiments/surprise_control_exp/stim/5_noeffect.mov 492 22-May-2018 11:00:38 6.600715e+01 3.370807e+01 0 0
29gs27_m19 539 59 57 45 45 right 1 5.000000e-01 /Users/corrado/Dropbox/experiments/surprise_control_exp/stim/8_noeffect.mov 395 22-May-2018 11:00:40 -2.626371e+02 2.968020e+02 0 0
29gs27_m19 539 60 73 45 45 right 1 5.000000e-01 /Users/corrado/Dropbox/experiments/surprise_control_exp/stim/9_noeffect.mov 598 22-May-2018 11:01:03 -4.982083e+02 -2.269834e+02 0 1
29gs27_m19 539 61 75 -45 45 left 1 5.000000e-01 /Users/corrado/Dropbox/experiments/surprise_control_exp/stim/9_noeffect.mov 525 22-May-2018 11:01:06 -2.117776e+02 1.643997e+02 0 0
29gs27_m19 539 62 58 45 -45 right 1 5.000000e-01 /Users/corrado/Dropbox/experiments/surprise_control_exp/stim/8_noeffect.mov 509 22-May-2018 11:01:09 -3.010150e+02 -2.816125e+02 0 0
29gs27_m19 539 63 36 -45 -45 left 1 5.000000e-01 /Users/corrado/Dropbox/experiments/surprise_control_exp/stim/5_noeffect.mov 411 22-May-2018 11:01:12 -8.287792e+01 8.186178e+01 0 0
29gs27_m19 539 64 15 -45 45 right 0 5.000000e-01 /Users/corrado/Dropbox/experiments/surprise_control_exp/stim/2_noeffect.mov 646 22-May-2018 11:01:38 -4.321959e+02 2.284497e+02 0 1
29gs27_m19 539 65 70 45 -45 right 1 5.000000e-01 /Users/corrado/Dropbox/experiments/surprise_control_exp/stim/9_noeffect.mov 432 22-May-2018 11:01:41 1.851982e+02 2.742066e+02 0 0
29gs27_m19 539 66 19 -45 45 left 1 5.000000e-01 /Users/corrado/Dropbox/experiments/surprise_control_exp/stim/2_noeffect.mov 457 22-May-2018 11:01:43 -3.569379e+02 -1.192791e+02 0 0
29gs27_m19 539 67 1 45 45 right 1 5.000000e-01 /Users/corrado/Dropbox/experiments/surprise_control_exp/stim/1_noeffect.mov 312 22-May-2018 11:01:46 -8.143798e+01 6.500801e+01 0 0
29gs27_m19 539 68 64 -45 -45 left 1 5.000000e-01 /Users/corrado/Dropbox/experiments/surprise_control_exp/stim/8_noeffect.mov 425 22-May-2018 11:02:08 -4.815989e+02 -1.218265e+02 0 1
29gs27_m19 539 69 56 -45 -45 left 1 5.000000e-01 /Users/corrado/Dropbox/experiments/surprise_control_exp/stim/7_noeffect.mov 426 22-May-2018 11:02:11 -1.641810e+02 -1.227582e+02 0 0
29gs27_m19 539 70 37 45 45 right 1 5.000000e-01 /Users/corrado/Dropbox/experiments/surprise_control_exp/stim/5_noeffect.mov 341 22-May-2018 11:02:13 -2.053916e+02 2.352755e+02 0 0
29gs27_m19 539 71 4 -45 -45 left 1 5.000000e-01 /Users/corrado/Dropbox/experiments/surprise_control_exp/stim/1_noeffect.mov 415 22-May-2018 11:02:16 1.124326e+02 4.970155e+02 0 0
29gs27_m19 539 72 29 45 45 right 1 5.000000e-01 /Users/corrado/Dropbox/experiments/surprise_control_exp/stim/4_noeffect.mov 454 22-May-2018 11:02:34 2.019969e+02 -1.749445e+02 0 1
29gs27_m19 539 73 40 -45 -45 left 1 5.000000e-01 /Users/corrado/Dropbox/experiments/surprise_control_exp/stim/5_noeffect.mov 375 22-May-2018 11:02:37 2.201399e+02 2.654172e+02 0 0
29gs27_m19 539 74 77 45 45 right 1 5.000000e-01 /Users/corrado/Dropbox/experiments/surprise_control_exp/stim/9_noeffect.mov 327 22-May-2018 11:02:40 1.652008e+02 2.657939e+01 0 0
29gs27_m19 539 75 3 -45 45 left 1 5.000000e-01 /Users/corrado/Dropbox/experiments/surprise_control_exp/stim/1_noeffect.mov 438 22-May-2018 11:02:42 -2.390881e+02 -1.978598e+02 0 0
29gs27_m19 539 76 23 -45 45 left 1 5.000000e-01 /Users/corrado/Dropbox/experiments/surprise_control_exp/stim/3_noeffect.mov 546 22-May-2018 11:03:02 -3.321325e+02 -2.238123e+02 0 1
29gs27_m19 539 77 2 45 -45 right 1 5.000000e-01 /Users/corrado/Dropbox/experiments/surprise_control_exp/stim/1_noeffect.mov 525 22-May-2018 11:03:04 4.226299e+02 2.966463e+02 0 0
29gs27_m19 539 78 60 -45 -45 left 1 5.000000e-01 /Users/corrado/Dropbox/experiments/surprise_control_exp/stim/8_noeffect.mov 442 22-May-2018 11:03:07 4.974992e+02 2.788680e+02 0 0
29gs27_m19 539 79 63 -45 45 left 1 5.000000e-01 /Users/corrado/Dropbox/experiments/surprise_control_exp/stim/8_noeffect.mov 524 22-May-2018 11:03:10 3.594566e+02 3.555148e+02 0 0
29gs27_m19 539 80 72 -45 -45 left 1 5.000000e-01 /Users/corrado/Dropbox/experiments/surprise_control_exp/stim/9_noeffect.mov 909 22-May-2018 11:03:13 -3.166698e+02 5.460156e+01 0 0
