subject_name subjectNumber iTrial unshuffled_trial targetOrientation flankersOrientation response correct onscreen_stim_duration magicShows rt date time_of_day deltaX deltaY surpriseClip isClipTrial
92dm08_25 584 1 11 -45 45 left 1 5.000000e-01 /Users/corrado/Dropbox/experiments/surprise_control_exp/stim/2_noeffect.mov 965 25-May-2018 10:53:13 1.892099e+02 3.736753e+02 0 1
92dm08_25 584 2 3 -45 45 left 1 5.000000e-01 /Users/corrado/Dropbox/experiments/surprise_control_exp/stim/1_noeffect.mov 966 25-May-2018 10:53:16 2.072204e+02 3.464252e+02 0 0
92dm08_25 584 3 75 -45 45 left 1 5.000000e-01 /Users/corrado/Dropbox/experiments/surprise_control_exp/stim/9_noeffect.mov 659 25-May-2018 10:53:19 -1.756117e+02 -1.776149e+02 0 0
92dm08_25 584 4 67 -45 45 left 1 5.000000e-01 /Users/corrado/Dropbox/experiments/surprise_control_exp/stim/9_noeffect.mov 764 25-May-2018 10:53:42 -1.887354e+02 3.856985e+02 0 1
92dm08_25 584 5 16 -45 -45 left 1 5.000000e-01 /Users/corrado/Dropbox/experiments/surprise_control_exp/stim/2_noeffect.mov 472 25-May-2018 10:53:45 -2.583393e+01 1.714576e+02 0 0
92dm08_25 584 6 40 -45 -45 left 1 5.000000e-01 /Users/corrado/Dropbox/experiments/surprise_control_exp/stim/5_noeffect.mov 628 25-May-2018 10:53:48 3.401508e+02 1.781852e+02 0 0
92dm08_25 584 7 42 45 -45 right 1 5.000000e-01 /Users/corrado/Dropbox/experiments/surprise_control_exp/stim/6_noeffect.mov 610 25-May-2018 10:53:51 3.076318e+02 4.026024e+00 0 0
92dm08_25 584 8 13 45 45 right 1 5.000000e-01 /Users/corrado/Dropbox/experiments/surprise_control_exp/stim/2_noeffect.mov 964 25-May-2018 10:54:18 4.554761e+02 -3.751412e+02 0 1
92dm08_25 584 9 76 -45 -45 left 1 5.000000e-01 /Users/corrado/Dropbox/experiments/surprise_control_exp/stim/9_noeffect.mov 592 25-May-2018 10:54:21 -2.288905e+02 -4.813363e+02 0 0
92dm08_25 584 10 80 -45 -45 left 1 5.000000e-01 /Users/corrado/Dropbox/experiments/surprise_control_exp/stim/9_noeffect.mov 877 25-May-2018 10:54:24 -3.347762e+02 -3.414613e+02 0 0
92dm08_25 584 11 72 -45 -45 left 1 5.000000e-01 /Users/corrado/Dropbox/experiments/surprise_control_exp/stim/9_noeffect.mov 675 25-May-2018 10:54:27 3.726368e+02 1.699454e+02 0 0
92dm08_25 584 12 20 -45 -45 left 1 5.000000e-01 /Users/corrado/Dropbox/experiments/surprise_control_exp/stim/2_noeffect.mov 863 25-May-2018 10:54:53 4.341546e+02 -4.667950e+01 0 1
92dm08_25 584 13 32 -45 -45 left 1 5.000000e-01 /Users/corrado/Dropbox/experiments/surprise_control_exp/stim/4_noeffect.mov 892 25-May-2018 10:54:56 -2.690876e+02 -1.578998e+02 0 0
92dm08_25 584 14 27 -45 45 left 1 5.000000e-01 /Users/corrado/Dropbox/experiments/surprise_control_exp/stim/4_noeffect.mov 742 25-May-2018 10:54:59 3.385985e+01 -5.313743e+01 0 0
92dm08_25 584 15 41 45 45 right 1 5.000000e-01 /Users/corrado/Dropbox/experiments/surprise_control_exp/stim/6_noeffect.mov 593 25-May-2018 10:55:02 5.977972e+01 -8.451963e+01 0 0
92dm08_25 584 16 55 -45 45 left 1 5.000000e-01 /Users/corrado/Dropbox/experiments/surprise_control_exp/stim/7_noeffect.mov 797 25-May-2018 10:55:23 2.702154e+02 2.374218e+02 0 1
92dm08_25 584 17 28 -45 -45 left 1 5.000000e-01 /Users/corrado/Dropbox/experiments/surprise_control_exp/stim/4_noeffect.mov 792 25-May-2018 10:55:26 -4.913030e+01 2.107222e+01 0 0
92dm08_25 584 18 59 -45 45 left 1 5.000000e-01 /Users/corrado/Dropbox/experiments/surprise_control_exp/stim/8_noeffect.mov 794 25-May-2018 10:55:29 4.170261e+02 -3.756081e+02 0 0
92dm08_25 584 19 77 45 45 right 1 5.000000e-01 /Users/corrado/Dropbox/experiments/surprise_control_exp/stim/9_noeffect.mov 610 25-May-2018 10:55:32 -2.817262e+02 4.771128e+02 0 0
92dm08_25 584 20 24 -45 -45 left 1 5.000000e-01 /Users/corrado/Dropbox/experiments/surprise_control_exp/stim/3_noeffect.mov 1046 25-May-2018 10:55:52 -4.415197e+02 -2.598357e+01 0 1
92dm08_25 584 21 47 -45 45 left 1 5.000000e-01 /Users/corrado/Dropbox/experiments/surprise_control_exp/stim/6_noeffect.mov 825 25-May-2018 10:55:55 3.523152e+02 6.910996e+01 0 0
92dm08_25 584 22 45 45 45 right 1 5.000000e-01 /Users/corrado/Dropbox/experiments/surprise_control_exp/stim/6_noeffect.mov 693 25-May-2018 10:55:58 -1.619194e+02 -2.444375e+02 0 0
92dm08_25 584 23 23 -45 45 left 1 5.000000e-01 /Users/corrado/Dropbox/experiments/surprise_control_exp/stim/3_noeffect.mov 792 25-May-2018 10:56:01 -1.265132e+02 -1.192666e+02 0 0
92dm08_25 584 24 31 -45 45 left 1 5.000000e-01 /Users/corrado/Dropbox/experiments/surprise_control_exp/stim/4_noeffect.mov 763 25-May-2018 10:56:19 4.932596e+01 -1.083369e+02 0 1
92dm08_25 584 25 53 45 45 right 1 5.000000e-01 /Users/corrado/Dropbox/experiments/surprise_control_exp/stim/7_noeffect.mov 792 25-May-2018 10:56:22 -1.160164e+02 -2.722452e+02 0 0
92dm08_25 584 26 39 -45 45 left 1 5.000000e-01 /Users/corrado/Dropbox/experiments/surprise_control_exp/stim/5_noeffect.mov 775 25-May-2018 10:56:25 3.930967e+02 -2.420400e+02 0 0
92dm08_25 584 27 43 -45 45 left 1 5.000000e-01 /Users/corrado/Dropbox/experiments/surprise_control_exp/stim/6_noeffect.mov 693 25-May-2018 10:56:29 4.263975e+02 4.843845e+02 0 0
92dm08_25 584 28 35 -45 45 left 1 5.000000e-01 /Users/corrado/Dropbox/experiments/surprise_control_exp/stim/5_noeffect.mov 946 25-May-2018 10:56:46 -4.649314e+02 3.464978e+02 0 1
92dm08_25 584 29 10 45 -45 right 1 5.000000e-01 /Users/corrado/Dropbox/experiments/surprise_control_exp/stim/2_noeffect.mov 676 25-May-2018 10:56:49 2.588876e+01 4.273082e+02 0 0
92dm08_25 584 30 4 -45 -45 left 1 5.000000e-01 /Users/corrado/Dropbox/experiments/surprise_control_exp/stim/1_noeffect.mov 776 25-May-2018 10:56:52 1.708746e+02 -4.022588e+02 0 0
92dm08_25 584 31 61 45 45 right 1 5.000000e-01 /Users/corrado/Dropbox/experiments/surprise_control_exp/stim/8_noeffect.mov 659 25-May-2018 10:56:55 4.650598e+02 4.868452e+02 0 0
92dm08_25 584 32 79 -45 45 left 1 5.000000e-01 /Users/corrado/Dropbox/experiments/surprise_control_exp/stim/9_noeffect.mov 763 25-May-2018 10:57:19 -7.619875e+01 -4.372633e+02 0 1
92dm08_25 584 33 25 45 45 right 1 5.000000e-01 /Users/corrado/Dropbox/experiments/surprise_control_exp/stim/4_noeffect.mov 642 25-May-2018 10:57:22 4.105469e+02 2.051890e+02 0 0
92dm08_25 584 34 22 45 -45 right 1 5.000000e-01 /Users/corrado/Dropbox/experiments/surprise_control_exp/stim/3_noeffect.mov 792 25-May-2018 10:57:25 4.539468e+02 3.732478e+02 0 0
92dm08_25 584 35 71 -45 45 left 1 5.000000e-01 /Users/corrado/Dropbox/experiments/surprise_control_exp/stim/9_noeffect.mov 826 25-May-2018 10:57:28 -2.370740e+02 -2.380184e+02 0 0
92dm08_25 584 36 34 45 -45 right 1 5.000000e-01 /Users/corrado/Dropbox/experiments/surprise_control_exp/stim/5_noeffect.mov 796 25-May-2018 10:57:46 -9.567191e+00 7.696403e+00 0 1
92dm08_25 584 37 33 45 45 right 1 5.000000e-01 /Users/corrado/Dropbox/experiments/surprise_control_exp/stim/5_noeffect.mov 710 25-May-2018 10:57:49 -2.031436e+00 -4.995511e+02 0 0
92dm08_25 584 38 58 45 -45 right 1 5.000000e-01 /Users/corrado/Dropbox/experiments/surprise_control_exp/stim/8_noeffect.mov 677 25-May-2018 10:57:52 -3.930055e+02 1.354883e+02 0 0
92dm08_25 584 39 50 45 -45 right 1 5.000000e-01 /Users/corrado/Dropbox/experiments/surprise_control_exp/stim/7_noeffect.mov 775 25-May-2018 10:57:55 4.727437e+02 -2.832548e+02 0 0
92dm08_25 584 40 15 -45 45 left 1 5.000000e-01 /Users/corrado/Dropbox/experiments/surprise_control_exp/stim/2_noeffect.mov 847 25-May-2018 10:58:21 -9.388165e+01 -3.916456e+02 0 1
92dm08_25 584 41 5 45 45 right 1 5.000000e-01 /Users/corrado/Dropbox/experiments/surprise_control_exp/stim/1_noeffect.mov 660 25-May-2018 10:58:24 -7.804508e+01 -3.151592e+02 0 0
92dm08_25 584 42 46 45 -45 right 1 5.000000e-01 /Users/corrado/Dropbox/experiments/surprise_control_exp/stim/6_noeffect.mov 676 25-May-2018 10:58:27 2.606366e+02 3.339938e+02 0 0
92dm08_25 584 43 63 -45 45 left 1 5.000000e-01 /Users/corrado/Dropbox/experiments/surprise_control_exp/stim/8_noeffect.mov 775 25-May-2018 10:58:30 4.155319e+02 -2.517563e+01 0 0
92dm08_25 584 44 65 45 45 right 1 5.000000e-01 /Users/corrado/Dropbox/experiments/surprise_control_exp/stim/9_noeffect.mov 830 25-May-2018 10:58:54 -4.830215e+02 2.752770e+02 0 1
92dm08_25 584 45 8 -45 -45 left 1 5.000000e-01 /Users/corrado/Dropbox/experiments/surprise_control_exp/stim/1_noeffect.mov 775 25-May-2018 10:58:57 -3.769655e+02 2.236675e+02 0 0
92dm08_25 584 46 18 45 -45 right 1 5.000000e-01 /Users/corrado/Dropbox/experiments/surprise_control_exp/stim/2_noeffect.mov 625 25-May-2018 10:59:00 -2.949241e+02 -2.925614e+02 0 0
92dm08_25 584 47 9 45 45 right 1 5.000000e-01 /Users/corrado/Dropbox/experiments/surprise_control_exp/stim/2_noeffect.mov 595 25-May-2018 10:59:03 4.154595e+02 3.154278e+02 0 0
92dm08_25 584 48 6 45 -45 right 1 5.000000e-01 /Users/corrado/Dropbox/experiments/surprise_control_exp/stim/1_noeffect.mov 715 25-May-2018 10:59:29 1.755800e+02 4.644026e+02 0 1
92dm08_25 584 49 12 -45 -45 left 1 5.000000e-01 /Users/corrado/Dropbox/experiments/surprise_control_exp/stim/2_noeffect.mov 677 25-May-2018 10:59:32 -1.518990e+01 5.641628e+01 0 0
92dm08_25 584 50 60 -45 -45 left 1 5.000000e-01 /Users/corrado/Dropbox/experiments/surprise_control_exp/stim/8_noeffect.mov 809 25-May-2018 10:59:35 -2.930437e+02 -2.147229e+02 0 0
92dm08_25 584 51 19 -45 45 left 1 5.000000e-01 /Users/corrado/Dropbox/experiments/surprise_control_exp/stim/2_noeffect.mov 759 25-May-2018 10:59:38 -4.166710e+02 3.289131e+02 0 0
92dm08_25 584 52 44 -45 -45 left 1 5.000000e-01 /Users/corrado/Dropbox/experiments/surprise_control_exp/stim/6_noeffect.mov 881 25-May-2018 10:59:54 -4.983106e+01 4.531261e+02 0 1
92dm08_25 584 53 48 -45 -45 left 1 5.000000e-01 /Users/corrado/Dropbox/experiments/surprise_control_exp/stim/6_noeffect.mov 649 25-May-2018 10:59:57 -2.346794e+02 -1.080188e+02 0 0
92dm08_25 584 54 49 45 45 right 1 5.000000e-01 /Users/corrado/Dropbox/experiments/surprise_control_exp/stim/7_noeffect.mov 759 25-May-2018 11:00:00 5.695021e+01 -1.376227e+01 0 0
92dm08_25 584 55 56 -45 -45 left 1 5.000000e-01 /Users/corrado/Dropbox/experiments/surprise_control_exp/stim/7_noeffect.mov 760 25-May-2018 11:00:04 -3.045020e+02 -1.927361e+01 0 0
92dm08_25 584 56 26 45 -45 right 1 5.000000e-01 /Users/corrado/Dropbox/experiments/surprise_control_exp/stim/4_noeffect.mov 880 25-May-2018 11:00:22 -3.194140e+02 4.204119e+01 0 1
92dm08_25 584 57 36 -45 -45 left 1 5.000000e-01 /Users/corrado/Dropbox/experiments/surprise_control_exp/stim/5_noeffect.mov 1042 25-May-2018 11:00:25 3.843212e+02 1.740194e+01 0 0
92dm08_25 584 58 68 -45 -45 left 1 5.000000e-01 /Users/corrado/Dropbox/experiments/surprise_control_exp/stim/9_noeffect.mov 795 25-May-2018 11:00:28 -1.174707e+01 -2.233724e+02 0 0
92dm08_25 584 59 54 45 -45 right 1 5.000000e-01 /Users/corrado/Dropbox/experiments/surprise_control_exp/stim/7_noeffect.mov 577 25-May-2018 11:00:31 2.926598e+02 -3.054173e+02 0 0
92dm08_25 584 60 69 45 45 right 1 5.000000e-01 /Users/corrado/Dropbox/experiments/surprise_control_exp/stim/9_noeffect.mov 713 25-May-2018 11:00:54 4.685490e+02 4.022098e+02 0 1
92dm08_25 584 61 29 45 45 right 1 5.000000e-01 /Users/corrado/Dropbox/experiments/surprise_control_exp/stim/4_noeffect.mov 527 25-May-2018 11:00:57 2.589629e+02 -1.407869e+02 0 0
92dm08_25 584 62 70 45 -45 right 1 5.000000e-01 /Users/corrado/Dropbox/experiments/surprise_control_exp/stim/9_noeffect.mov 625 25-May-2018 11:01:00 -6.470027e+01 -1.713105e+02 0 0
92dm08_25 584 63 30 45 -45 right 1 5.000000e-01 /Users/corrado/Dropbox/experiments/surprise_control_exp/stim/4_noeffect.mov 593 25-May-2018 11:01:03 1.124606e+02 -2.311740e+02 0 0
92dm08_25 584 64 17 45 45 right 1 5.000000e-01 /Users/corrado/Dropbox/experiments/surprise_control_exp/stim/2_noeffect.mov 879 25-May-2018 11:01:30 2.587964e+02 -1.988183e+02 0 1
92dm08_25 584 65 78 45 -45 right 1 5.000000e-01 /Users/corrado/Dropbox/experiments/surprise_control_exp/stim/9_noeffect.mov 795 25-May-2018 11:01:33 -4.351258e+02 1.314602e+02 0 0
92dm08_25 584 66 2 45 -45 right 1 5.000000e-01 /Users/corrado/Dropbox/experiments/surprise_control_exp/stim/1_noeffect.mov 828 25-May-2018 11:01:36 -3.916360e+02 -2.243221e+02 0 0
92dm08_25 584 67 74 45 -45 right 1 5.000000e-01 /Users/corrado/Dropbox/experiments/surprise_control_exp/stim/9_noeffect.mov 844 25-May-2018 11:01:39 -2.753646e+02 -1.051632e+02 0 0
92dm08_25 584 68 1 45 45 right 1 5.000000e-01 /Users/corrado/Dropbox/experiments/surprise_control_exp/stim/1_noeffect.mov 762 25-May-2018 11:02:06 -2.926680e+02 -3.149981e+02 0 1
92dm08_25 584 69 52 -45 -45 left 1 5.000000e-01 /Users/corrado/Dropbox/experiments/surprise_control_exp/stim/7_noeffect.mov 860 25-May-2018 11:02:09 2.007151e+01 -3.755741e+02 0 0
92dm08_25 584 70 21 45 45 right 1 5.000000e-01 /Users/corrado/Dropbox/experiments/surprise_control_exp/stim/3_noeffect.mov 692 25-May-2018 11:02:12 -3.690733e+02 7.330786e+01 0 0
92dm08_25 584 71 38 45 -45 right 1 5.000000e-01 /Users/corrado/Dropbox/experiments/surprise_control_exp/stim/5_noeffect.mov 628 25-May-2018 11:02:15 1.207511e+02 -4.864596e+01 0 0
92dm08_25 584 72 73 45 45 right 1 5.000000e-01 /Users/corrado/Dropbox/experiments/surprise_control_exp/stim/9_noeffect.mov 730 25-May-2018 11:02:38 2.571347e+00 4.448413e+02 0 1
92dm08_25 584 73 57 45 45 right 1 5.000000e-01 /Users/corrado/Dropbox/experiments/surprise_control_exp/stim/8_noeffect.mov 742 25-May-2018 11:02:41 -4.850691e+02 1.354097e+02 0 0
92dm08_25 584 74 62 45 -45 right 1 5.000000e-01 /Users/corrado/Dropbox/experiments/surprise_control_exp/stim/8_noeffect.mov 660 25-May-2018 11:02:44 -2.380833e+02 3.092092e+01 0 0
92dm08_25 584 75 66 45 -45 right 1 5.000000e-01 /Users/corrado/Dropbox/experiments/surprise_control_exp/stim/9_noeffect.mov 610 25-May-2018 11:02:47 -1.758338e+02 3.533402e+02 0 0
92dm08_25 584 76 7 -45 45 left 1 5.000000e-01 /Users/corrado/Dropbox/experiments/surprise_control_exp/stim/1_noeffect.mov 798 25-May-2018 11:03:14 1.593122e+02 1.411188e+02 0 1
92dm08_25 584 77 14 45 -45 right 1 5.000000e-01 /Users/corrado/Dropbox/experiments/surprise_control_exp/stim/2_noeffect.mov 760 25-May-2018 11:03:17 -3.397217e+02 -1.312486e+02 0 0
92dm08_25 584 78 51 -45 45 left 1 5.000000e-01 /Users/corrado/Dropbox/experiments/surprise_control_exp/stim/7_noeffect.mov 692 25-May-2018 11:03:20 -3.192215e+02 2.244038e+02 0 0
92dm08_25 584 79 37 45 45 right 1 5.000000e-01 /Users/corrado/Dropbox/experiments/surprise_control_exp/stim/5_noeffect.mov 543 25-May-2018 11:03:23 -7.654777e+01 4.048434e+01 0 0
92dm08_25 584 80 64 -45 -45 left 1 5.000000e-01 /Users/corrado/Dropbox/experiments/surprise_control_exp/stim/8_noeffect.mov 775 25-May-2018 11:03:26 -4.082801e+02 1.494976e+02 0 0
