subject_name subjectNumber iTrial unshuffled_trial targetOrientation flankersOrientation response correct onscreen_stim_duration magicShows rt date time_of_day deltaX deltaY surpriseClip isClipTrial
88fs29_m20 581 1 78 45 -45 right 1 5.000000e-01 /Users/corrado/Dropbox/experiments/surprise_control_exp/stim/9_noeffect.mov 695 25-May-2018 10:18:25 4.077224e+02 -4.646526e+02 0 1
88fs29_m20 581 2 80 -45 -45 left 1 5.000000e-01 /Users/corrado/Dropbox/experiments/surprise_control_exp/stim/9_noeffect.mov 693 25-May-2018 10:18:28 -2.781424e+02 2.018629e+01 0 0
88fs29_m20 581 3 35 -45 45 left 1 5.000000e-01 /Users/corrado/Dropbox/experiments/surprise_control_exp/stim/5_noeffect.mov 709 25-May-2018 10:18:31 2.962577e+02 -1.931504e+02 0 0
88fs29_m20 581 4 75 -45 45 left 1 5.000000e-01 /Users/corrado/Dropbox/experiments/surprise_control_exp/stim/9_noeffect.mov 747 25-May-2018 10:18:54 4.497426e+02 2.377619e+02 0 1
88fs29_m20 581 5 45 45 45 left 0 5.000000e-01 /Users/corrado/Dropbox/experiments/surprise_control_exp/stim/6_noeffect.mov 627 25-May-2018 10:18:57 8.935046e+01 -2.634730e+02 0 0
88fs29_m20 581 6 18 45 -45 right 1 5.000000e-01 /Users/corrado/Dropbox/experiments/surprise_control_exp/stim/2_noeffect.mov 1160 25-May-2018 10:19:01 5.920375e+01 -3.042273e+02 0 0
88fs29_m20 581 7 22 45 -45 right 1 5.000000e-01 /Users/corrado/Dropbox/experiments/surprise_control_exp/stim/3_noeffect.mov 692 25-May-2018 10:19:04 4.543658e+02 -4.004292e+01 0 0
88fs29_m20 581 8 17 45 45 right 1 5.000000e-01 /Users/corrado/Dropbox/experiments/surprise_control_exp/stim/2_noeffect.mov 613 25-May-2018 10:19:30 -2.375313e+02 1.503731e+01 0 1
88fs29_m20 581 9 42 45 -45 right 1 5.000000e-01 /Users/corrado/Dropbox/experiments/surprise_control_exp/stim/6_noeffect.mov 543 25-May-2018 10:19:33 4.105436e+01 -1.920283e+02 0 0
88fs29_m20 581 10 76 -45 -45 left 1 5.000000e-01 /Users/corrado/Dropbox/experiments/surprise_control_exp/stim/9_noeffect.mov 811 25-May-2018 10:19:36 -3.523164e+02 -1.285211e+01 0 0
88fs29_m20 581 11 24 -45 -45 left 1 5.000000e-01 /Users/corrado/Dropbox/experiments/surprise_control_exp/stim/3_noeffect.mov 678 25-May-2018 10:19:39 -3.941876e+02 -3.540940e+02 0 0
88fs29_m20 581 12 29 45 45 right 1 5.000000e-01 /Users/corrado/Dropbox/experiments/surprise_control_exp/stim/4_noeffect.mov 698 25-May-2018 10:19:58 3.500312e+02 4.726453e+02 0 1
88fs29_m20 581 13 28 -45 -45 left 1 5.000000e-01 /Users/corrado/Dropbox/experiments/surprise_control_exp/stim/4_noeffect.mov 799 25-May-2018 10:20:01 -2.487392e+01 3.025025e+02 0 0
88fs29_m20 581 14 15 -45 45 left 1 5.000000e-01 /Users/corrado/Dropbox/experiments/surprise_control_exp/stim/2_noeffect.mov 626 25-May-2018 10:20:04 -1.565235e+02 -4.115047e+02 0 0
88fs29_m20 581 15 52 -45 -45 right 0 5.000000e-01 /Users/corrado/Dropbox/experiments/surprise_control_exp/stim/7_noeffect.mov 867 25-May-2018 10:20:07 4.924207e+02 -3.301534e+02 0 0
88fs29_m20 581 16 13 45 45 right 1 5.000000e-01 /Users/corrado/Dropbox/experiments/surprise_control_exp/stim/2_noeffect.mov 780 25-May-2018 10:20:33 1.568726e+02 1.211759e+02 0 1
88fs29_m20 581 17 33 45 45 right 1 5.000000e-01 /Users/corrado/Dropbox/experiments/surprise_control_exp/stim/5_noeffect.mov 661 25-May-2018 10:20:36 4.829800e+01 8.064838e+01 0 0
88fs29_m20 581 18 10 45 -45 right 1 5.000000e-01 /Users/corrado/Dropbox/experiments/surprise_control_exp/stim/2_noeffect.mov 627 25-May-2018 10:20:39 -3.722768e+02 3.403595e+02 0 0
88fs29_m20 581 19 26 45 -45 right 1 5.000000e-01 /Users/corrado/Dropbox/experiments/surprise_control_exp/stim/4_noeffect.mov 526 25-May-2018 10:20:42 -1.252307e+02 1.308329e+02 0 0
88fs29_m20 581 20 60 -45 -45 left 1 5.000000e-01 /Users/corrado/Dropbox/experiments/surprise_control_exp/stim/8_noeffect.mov 862 25-May-2018 10:21:05 -1.290790e+02 1.999066e+02 0 1
88fs29_m20 581 21 27 -45 45 left 1 5.000000e-01 /Users/corrado/Dropbox/experiments/surprise_control_exp/stim/4_noeffect.mov 593 25-May-2018 10:21:08 3.487124e+02 2.651149e+02 0 0
88fs29_m20 581 22 30 45 -45 right 1 5.000000e-01 /Users/corrado/Dropbox/experiments/surprise_control_exp/stim/4_noeffect.mov 626 25-May-2018 10:21:11 1.231129e+02 5.271541e+01 0 0
88fs29_m20 581 23 46 45 -45 right 1 5.000000e-01 /Users/corrado/Dropbox/experiments/surprise_control_exp/stim/6_noeffect.mov 608 25-May-2018 10:21:14 -2.750354e+01 -1.195636e+02 0 0
88fs29_m20 581 24 72 -45 -45 left 1 5.000000e-01 /Users/corrado/Dropbox/experiments/surprise_control_exp/stim/9_noeffect.mov 696 25-May-2018 10:21:37 1.954467e+02 3.063094e+02 0 1
88fs29_m20 581 25 39 -45 45 left 1 5.000000e-01 /Users/corrado/Dropbox/experiments/surprise_control_exp/stim/5_noeffect.mov 610 25-May-2018 10:21:40 -3.817493e+02 1.149506e+02 0 0
88fs29_m20 581 26 8 -45 -45 left 1 5.000000e-01 /Users/corrado/Dropbox/experiments/surprise_control_exp/stim/1_noeffect.mov 576 25-May-2018 10:21:43 2.146109e+02 -3.974869e+02 0 0
88fs29_m20 581 27 50 45 -45 right 1 5.000000e-01 /Users/corrado/Dropbox/experiments/surprise_control_exp/stim/7_noeffect.mov 642 25-May-2018 10:21:46 2.747628e+02 -2.829070e+02 0 0
88fs29_m20 581 28 51 -45 45 left 1 5.000000e-01 /Users/corrado/Dropbox/experiments/surprise_control_exp/stim/7_noeffect.mov 512 25-May-2018 10:22:06 7.831714e+01 7.637003e+01 0 1
88fs29_m20 581 29 23 -45 45 left 1 5.000000e-01 /Users/corrado/Dropbox/experiments/surprise_control_exp/stim/3_noeffect.mov 609 25-May-2018 10:22:09 -2.757992e+02 6.523867e+01 0 0
88fs29_m20 581 30 62 45 -45 right 1 5.000000e-01 /Users/corrado/Dropbox/experiments/surprise_control_exp/stim/8_noeffect.mov 844 25-May-2018 10:22:12 -2.937679e+02 1.051195e+02 0 0
88fs29_m20 581 31 73 45 45 right 1 5.000000e-01 /Users/corrado/Dropbox/experiments/surprise_control_exp/stim/9_noeffect.mov 743 25-May-2018 10:22:15 4.072507e+02 3.984851e+02 0 0
88fs29_m20 581 32 66 45 -45 right 1 5.000000e-01 /Users/corrado/Dropbox/experiments/surprise_control_exp/stim/9_noeffect.mov 663 25-May-2018 10:22:39 4.782505e+02 1.588994e+02 0 1
88fs29_m20 581 33 77 45 45 right 1 5.000000e-01 /Users/corrado/Dropbox/experiments/surprise_control_exp/stim/9_noeffect.mov 775 25-May-2018 10:22:42 -4.410311e+01 4.367102e+01 0 0
88fs29_m20 581 34 11 -45 45 left 1 5.000000e-01 /Users/corrado/Dropbox/experiments/surprise_control_exp/stim/2_noeffect.mov 642 25-May-2018 10:22:45 -4.351243e+02 -4.203648e+02 0 0
88fs29_m20 581 35 7 -45 45 left 1 5.000000e-01 /Users/corrado/Dropbox/experiments/surprise_control_exp/stim/1_noeffect.mov 659 25-May-2018 10:22:48 2.956639e+02 1.188331e+01 0 0
88fs29_m20 581 36 14 45 -45 right 1 5.000000e-01 /Users/corrado/Dropbox/experiments/surprise_control_exp/stim/2_noeffect.mov 581 25-May-2018 10:23:14 5.291941e+01 3.386786e+02 0 1
88fs29_m20 581 37 49 45 45 right 1 5.000000e-01 /Users/corrado/Dropbox/experiments/surprise_control_exp/stim/7_noeffect.mov 777 25-May-2018 10:23:17 -2.542271e+02 5.867279e+01 0 0
88fs29_m20 581 38 44 -45 -45 left 1 5.000000e-01 /Users/corrado/Dropbox/experiments/surprise_control_exp/stim/6_noeffect.mov 592 25-May-2018 10:23:20 2.366425e+02 4.148950e+02 0 0
88fs29_m20 581 39 6 45 -45 right 1 5.000000e-01 /Users/corrado/Dropbox/experiments/surprise_control_exp/stim/1_noeffect.mov 543 25-May-2018 10:23:23 -7.173987e+01 -1.553427e+02 0 0
88fs29_m20 581 40 58 45 -45 right 1 5.000000e-01 /Users/corrado/Dropbox/experiments/surprise_control_exp/stim/8_noeffect.mov 797 25-May-2018 10:23:46 -4.806434e+02 -3.068485e+02 0 1
88fs29_m20 581 41 79 -45 45 left 1 5.000000e-01 /Users/corrado/Dropbox/experiments/surprise_control_exp/stim/9_noeffect.mov 743 25-May-2018 10:23:49 -1.443676e+02 -1.056765e+02 0 0
88fs29_m20 581 42 74 45 -45 right 1 5.000000e-01 /Users/corrado/Dropbox/experiments/surprise_control_exp/stim/9_noeffect.mov 575 25-May-2018 10:23:52 2.636352e+02 -1.263102e+02 0 0
88fs29_m20 581 43 16 -45 -45 left 1 5.000000e-01 /Users/corrado/Dropbox/experiments/surprise_control_exp/stim/2_noeffect.mov 691 25-May-2018 10:23:55 2.436561e+02 4.206781e+02 0 0
88fs29_m20 581 44 1 45 45 right 1 5.000000e-01 /Users/corrado/Dropbox/experiments/surprise_control_exp/stim/1_noeffect.mov 814 25-May-2018 10:24:21 2.618427e+02 -4.365172e+02 0 1
88fs29_m20 581 45 68 -45 -45 left 1 5.000000e-01 /Users/corrado/Dropbox/experiments/surprise_control_exp/stim/9_noeffect.mov 959 25-May-2018 10:24:25 4.021050e+02 1.607113e+02 0 0
88fs29_m20 581 46 53 45 45 right 1 5.000000e-01 /Users/corrado/Dropbox/experiments/surprise_control_exp/stim/7_noeffect.mov 743 25-May-2018 10:24:28 -3.258965e+02 3.084815e+02 0 0
88fs29_m20 581 47 37 45 45 right 1 5.000000e-01 /Users/corrado/Dropbox/experiments/surprise_control_exp/stim/5_noeffect.mov 627 25-May-2018 10:24:31 -1.856309e+02 -3.274066e+02 0 0
88fs29_m20 581 48 71 -45 45 left 1 5.000000e-01 /Users/corrado/Dropbox/experiments/surprise_control_exp/stim/9_noeffect.mov 1045 25-May-2018 10:24:54 3.466250e+02 4.411015e+02 0 1
88fs29_m20 581 49 57 45 45 right 1 5.000000e-01 /Users/corrado/Dropbox/experiments/surprise_control_exp/stim/8_noeffect.mov 645 25-May-2018 10:24:57 2.549629e+02 -2.933223e+02 0 0
88fs29_m20 581 50 67 -45 45 left 1 5.000000e-01 /Users/corrado/Dropbox/experiments/surprise_control_exp/stim/9_noeffect.mov 708 25-May-2018 10:25:01 -3.128303e+01 3.362232e+02 0 0
88fs29_m20 581 51 63 -45 45 left 1 5.000000e-01 /Users/corrado/Dropbox/experiments/surprise_control_exp/stim/8_noeffect.mov 576 25-May-2018 10:25:03 6.254109e+01 1.217938e+02 0 0
88fs29_m20 581 52 12 -45 -45 left 1 5.000000e-01 /Users/corrado/Dropbox/experiments/surprise_control_exp/stim/2_noeffect.mov 812 25-May-2018 10:25:30 2.184633e+02 -2.353768e+02 0 1
88fs29_m20 581 53 69 45 45 right 1 5.000000e-01 /Users/corrado/Dropbox/experiments/surprise_control_exp/stim/9_noeffect.mov 627 25-May-2018 10:25:33 -3.648109e+02 -3.383640e+02 0 0
88fs29_m20 581 54 55 -45 45 left 1 5.000000e-01 /Users/corrado/Dropbox/experiments/surprise_control_exp/stim/7_noeffect.mov 999 25-May-2018 10:25:36 -2.981884e+01 -2.375258e+02 0 0
88fs29_m20 581 55 47 -45 45 left 1 5.000000e-01 /Users/corrado/Dropbox/experiments/surprise_control_exp/stim/6_noeffect.mov 792 25-May-2018 10:25:39 -2.503838e+02 -6.450202e+01 0 0
88fs29_m20 581 56 21 45 45 right 1 5.000000e-01 /Users/corrado/Dropbox/experiments/surprise_control_exp/stim/3_noeffect.mov 764 25-May-2018 10:25:59 -3.274841e+02 -2.226938e+02 0 1
88fs29_m20 581 57 31 -45 45 left 1 5.000000e-01 /Users/corrado/Dropbox/experiments/surprise_control_exp/stim/4_noeffect.mov 592 25-May-2018 10:26:02 4.797919e+02 4.385491e+02 0 0
88fs29_m20 581 58 64 -45 -45 left 1 5.000000e-01 /Users/corrado/Dropbox/experiments/surprise_control_exp/stim/8_noeffect.mov 760 25-May-2018 10:26:05 -4.744776e+01 3.817785e+02 0 0
88fs29_m20 581 59 36 -45 -45 left 1 5.000000e-01 /Users/corrado/Dropbox/experiments/surprise_control_exp/stim/5_noeffect.mov 484 25-May-2018 10:26:08 3.102086e+01 4.314768e+02 0 0
88fs29_m20 581 60 54 45 -45 right 1 5.000000e-01 /Users/corrado/Dropbox/experiments/surprise_control_exp/stim/7_noeffect.mov 581 25-May-2018 10:26:28 2.135860e+02 3.167315e+02 0 1
88fs29_m20 581 61 34 45 -45 right 1 5.000000e-01 /Users/corrado/Dropbox/experiments/surprise_control_exp/stim/5_noeffect.mov 610 25-May-2018 10:26:31 -4.928530e+02 4.431652e+02 0 0
88fs29_m20 581 62 56 -45 -45 left 1 5.000000e-01 /Users/corrado/Dropbox/experiments/surprise_control_exp/stim/7_noeffect.mov 742 25-May-2018 10:26:34 -2.491879e+02 1.111011e+02 0 0
88fs29_m20 581 63 48 -45 -45 right 0 5.000000e-01 /Users/corrado/Dropbox/experiments/surprise_control_exp/stim/6_noeffect.mov 484 25-May-2018 10:26:37 7.096350e+01 -1.726162e+02 0 0
88fs29_m20 581 64 5 45 45 right 1 5.000000e-01 /Users/corrado/Dropbox/experiments/surprise_control_exp/stim/1_noeffect.mov 781 25-May-2018 10:27:04 4.566809e+02 -2.610743e+02 0 1
88fs29_m20 581 65 65 45 45 right 1 5.000000e-01 /Users/corrado/Dropbox/experiments/surprise_control_exp/stim/9_noeffect.mov 742 25-May-2018 10:27:07 1.947992e+02 -1.733140e+02 0 0
88fs29_m20 581 66 19 -45 45 left 1 5.000000e-01 /Users/corrado/Dropbox/experiments/surprise_control_exp/stim/2_noeffect.mov 625 25-May-2018 10:27:10 -2.913172e+02 2.077994e+02 0 0
88fs29_m20 581 67 70 45 -45 right 1 5.000000e-01 /Users/corrado/Dropbox/experiments/surprise_control_exp/stim/9_noeffect.mov 609 25-May-2018 10:27:13 4.392782e+02 -1.853141e+02 0 0
88fs29_m20 581 68 38 45 -45 right 1 5.000000e-01 /Users/corrado/Dropbox/experiments/surprise_control_exp/stim/5_noeffect.mov 696 25-May-2018 10:27:30 -4.620939e+02 3.338339e+02 0 1
88fs29_m20 581 69 2 45 -45 right 1 5.000000e-01 /Users/corrado/Dropbox/experiments/surprise_control_exp/stim/1_noeffect.mov 576 25-May-2018 10:27:33 -2.620669e+02 -3.773551e+02 0 0
88fs29_m20 581 70 61 45 45 right 1 5.000000e-01 /Users/corrado/Dropbox/experiments/surprise_control_exp/stim/8_noeffect.mov 660 25-May-2018 10:27:36 -2.990885e+02 -2.286517e+02 0 0
88fs29_m20 581 71 43 -45 45 left 1 5.000000e-01 /Users/corrado/Dropbox/experiments/surprise_control_exp/stim/6_noeffect.mov 842 25-May-2018 10:27:40 -4.071696e+02 -3.974259e+02 0 0
88fs29_m20 581 72 25 45 45 right 1 5.000000e-01 /Users/corrado/Dropbox/experiments/surprise_control_exp/stim/4_noeffect.mov 680 25-May-2018 10:27:58 -3.706965e+02 -2.812648e+02 0 1
88fs29_m20 581 73 40 -45 -45 left 1 5.000000e-01 /Users/corrado/Dropbox/experiments/surprise_control_exp/stim/5_noeffect.mov 765 25-May-2018 10:28:01 4.250508e+02 1.155469e+02 0 0
88fs29_m20 581 74 59 -45 45 left 1 5.000000e-01 /Users/corrado/Dropbox/experiments/surprise_control_exp/stim/8_noeffect.mov 575 25-May-2018 10:28:04 -2.821866e+02 3.910956e+02 0 0
88fs29_m20 581 75 20 -45 -45 left 1 5.000000e-01 /Users/corrado/Dropbox/experiments/surprise_control_exp/stim/2_noeffect.mov 374 25-May-2018 10:28:07 -1.234242e+02 2.048219e+02 0 0
88fs29_m20 581 76 4 -45 -45 left 1 5.000000e-01 /Users/corrado/Dropbox/experiments/surprise_control_exp/stim/1_noeffect.mov 1215 25-May-2018 10:28:34 -1.673717e+02 1.163008e+00 0 1
88fs29_m20 581 77 9 45 45 right 1 5.000000e-01 /Users/corrado/Dropbox/experiments/surprise_control_exp/stim/2_noeffect.mov 695 25-May-2018 10:28:37 1.812493e+02 1.227152e+02 0 0
88fs29_m20 581 78 41 45 45 right 1 5.000000e-01 /Users/corrado/Dropbox/experiments/surprise_control_exp/stim/6_noeffect.mov 727 25-May-2018 10:28:40 3.100472e+02 -1.431118e+02 0 0
88fs29_m20 581 79 3 -45 45 left 1 5.000000e-01 /Users/corrado/Dropbox/experiments/surprise_control_exp/stim/1_noeffect.mov 893 25-May-2018 10:28:44 -8.599619e+01 1.463185e+00 0 0
88fs29_m20 581 80 32 -45 -45 left 1 5.000000e-01 /Users/corrado/Dropbox/experiments/surprise_control_exp/stim/4_noeffect.mov 592 25-May-2018 10:28:47 -1.397786e+02 2.808987e+01 0 0
