subject_name subjectNumber iTrial unshuffled_trial targetOrientation flankersOrientation response correct onscreen_stim_duration magicShows rt date time_of_day deltaX deltaY surpriseClip isClipTrial
88fs29_m20 578 1 78 45 -45 right 1 5.000000e-01 /Users/corrado/Dropbox/experiments/surprise_control_exp/stim/9_noeffect.mov 681 25-May-2018 09:46:08 3.190718e+02 4.979163e+02 0 1
88fs29_m20 578 2 25 45 45 right 1 5.000000e-01 /Users/corrado/Dropbox/experiments/surprise_control_exp/stim/4_noeffect.mov 977 25-May-2018 09:46:11 2.741685e+02 -1.297442e+02 0 0
88fs29_m20 578 3 41 45 45 right 1 5.000000e-01 /Users/corrado/Dropbox/experiments/surprise_control_exp/stim/6_noeffect.mov 776 25-May-2018 09:46:14 -1.458326e+02 -4.760162e+02 0 0
88fs29_m20 578 4 14 45 -45 right 1 5.000000e-01 /Users/corrado/Dropbox/experiments/surprise_control_exp/stim/2_noeffect.mov 646 25-May-2018 09:46:41 7.351715e+01 -1.571426e+02 0 1
88fs29_m20 578 5 39 -45 45 left 1 5.000000e-01 /Users/corrado/Dropbox/experiments/surprise_control_exp/stim/5_noeffect.mov 542 25-May-2018 09:46:44 2.824289e+02 -3.905999e+02 0 0
88fs29_m20 578 6 8 -45 -45 left 1 5.000000e-01 /Users/corrado/Dropbox/experiments/surprise_control_exp/stim/1_noeffect.mov 760 25-May-2018 09:46:47 -3.908831e+02 4.136480e+01 0 0
88fs29_m20 578 7 13 45 45 right 1 5.000000e-01 /Users/corrado/Dropbox/experiments/surprise_control_exp/stim/2_noeffect.mov 725 25-May-2018 09:46:50 -3.538095e+02 -2.826683e+02 0 0
88fs29_m20 578 8 64 -45 -45 left 1 5.000000e-01 /Users/corrado/Dropbox/experiments/surprise_control_exp/stim/8_noeffect.mov 996 25-May-2018 09:47:12 -1.953388e+02 4.071529e+02 0 1
88fs29_m20 578 9 29 45 45 right 1 5.000000e-01 /Users/corrado/Dropbox/experiments/surprise_control_exp/stim/4_noeffect.mov 693 25-May-2018 09:47:16 -2.830390e+02 1.074949e+02 0 0
88fs29_m20 578 10 11 -45 45 left 1 5.000000e-01 /Users/corrado/Dropbox/experiments/surprise_control_exp/stim/2_noeffect.mov 692 25-May-2018 09:47:19 -2.002672e+02 -3.852773e+02 0 0
88fs29_m20 578 11 49 45 45 right 1 5.000000e-01 /Users/corrado/Dropbox/experiments/surprise_control_exp/stim/7_noeffect.mov 776 25-May-2018 09:47:22 -4.601831e+02 4.775600e+02 0 0
88fs29_m20 578 12 80 -45 -45 left 1 5.000000e-01 /Users/corrado/Dropbox/experiments/surprise_control_exp/stim/9_noeffect.mov 813 25-May-2018 09:47:45 -2.855763e+02 -4.588883e+02 0 1
88fs29_m20 578 13 79 -45 45 left 1 5.000000e-01 /Users/corrado/Dropbox/experiments/surprise_control_exp/stim/9_noeffect.mov 843 25-May-2018 09:47:48 -4.151178e+02 -4.963355e+02 0 0
88fs29_m20 578 14 71 -45 45 left 1 5.000000e-01 /Users/corrado/Dropbox/experiments/surprise_control_exp/stim/9_noeffect.mov 649 25-May-2018 09:47:51 -2.263011e+02 1.989769e+02 0 0
88fs29_m20 578 15 50 45 -45 right 1 5.000000e-01 /Users/corrado/Dropbox/experiments/surprise_control_exp/stim/7_noeffect.mov 592 25-May-2018 09:47:54 -2.737253e+02 -4.688834e+02 0 0
88fs29_m20 578 16 70 45 -45 right 1 5.000000e-01 /Users/corrado/Dropbox/experiments/surprise_control_exp/stim/9_noeffect.mov 763 25-May-2018 09:48:17 4.570621e+02 4.346460e+01 0 1
88fs29_m20 578 17 32 -45 -45 left 1 5.000000e-01 /Users/corrado/Dropbox/experiments/surprise_control_exp/stim/4_noeffect.mov 659 25-May-2018 09:48:20 -4.981442e+02 -4.471252e+02 0 0
88fs29_m20 578 18 55 -45 45 left 1 5.000000e-01 /Users/corrado/Dropbox/experiments/surprise_control_exp/stim/7_noeffect.mov 643 25-May-2018 09:48:23 1.551451e+02 -3.206592e+02 0 0
88fs29_m20 578 19 19 -45 45 left 1 5.000000e-01 /Users/corrado/Dropbox/experiments/surprise_control_exp/stim/2_noeffect.mov 543 25-May-2018 09:48:26 -4.822803e+02 2.490339e+02 0 0
88fs29_m20 578 20 27 -45 45 left 1 5.000000e-01 /Users/corrado/Dropbox/experiments/surprise_control_exp/stim/4_noeffect.mov 746 25-May-2018 09:48:45 2.877840e+02 4.222335e+02 0 1
88fs29_m20 578 21 42 45 -45 right 1 5.000000e-01 /Users/corrado/Dropbox/experiments/surprise_control_exp/stim/6_noeffect.mov 760 25-May-2018 09:48:48 3.110914e+02 2.449131e+02 0 0
88fs29_m20 578 22 45 45 45 right 1 5.000000e-01 /Users/corrado/Dropbox/experiments/surprise_control_exp/stim/6_noeffect.mov 658 25-May-2018 09:48:51 -4.111623e+02 3.275824e+02 0 0
88fs29_m20 578 23 16 -45 -45 left 1 5.000000e-01 /Users/corrado/Dropbox/experiments/surprise_control_exp/stim/2_noeffect.mov 692 25-May-2018 09:48:54 -3.307384e+02 1.249413e+02 0 0
88fs29_m20 578 24 21 45 45 right 1 5.000000e-01 /Users/corrado/Dropbox/experiments/surprise_control_exp/stim/3_noeffect.mov 764 25-May-2018 09:49:13 2.541929e+01 -3.265114e+02 0 1
88fs29_m20 578 25 77 45 45 left 0 5.000000e-01 /Users/corrado/Dropbox/experiments/surprise_control_exp/stim/9_noeffect.mov 575 25-May-2018 09:49:16 -1.885476e+02 2.328761e+01 0 0
88fs29_m20 578 26 72 -45 -45 left 1 5.000000e-01 /Users/corrado/Dropbox/experiments/surprise_control_exp/stim/9_noeffect.mov 892 25-May-2018 09:49:19 4.027591e+02 3.399181e+02 0 0
88fs29_m20 578 27 22 45 -45 right 1 5.000000e-01 /Users/corrado/Dropbox/experiments/surprise_control_exp/stim/3_noeffect.mov 826 25-May-2018 09:49:23 1.586587e+02 -2.435117e+02 0 0
88fs29_m20 578 28 48 -45 -45 left 1 5.000000e-01 /Users/corrado/Dropbox/experiments/surprise_control_exp/stim/6_noeffect.mov 1163 25-May-2018 09:49:39 -4.277001e+02 -1.173482e+02 0 1
88fs29_m20 578 29 35 -45 45 left 1 5.000000e-01 /Users/corrado/Dropbox/experiments/surprise_control_exp/stim/5_noeffect.mov 677 25-May-2018 09:49:42 -2.760015e+02 4.375005e+02 0 0
88fs29_m20 578 30 5 45 45 right 1 5.000000e-01 /Users/corrado/Dropbox/experiments/surprise_control_exp/stim/1_noeffect.mov 825 25-May-2018 09:49:45 4.389741e+02 -3.368273e+02 0 0
88fs29_m20 578 31 24 -45 -45 left 1 5.000000e-01 /Users/corrado/Dropbox/experiments/surprise_control_exp/stim/3_noeffect.mov 743 25-May-2018 09:49:48 -1.756215e+02 -4.965554e+02 0 0
88fs29_m20 578 32 56 -45 -45 left 1 5.000000e-01 /Users/corrado/Dropbox/experiments/surprise_control_exp/stim/7_noeffect.mov 746 25-May-2018 09:50:08 -2.412305e+02 5.990597e+01 0 1
88fs29_m20 578 33 37 45 45 right 1 5.000000e-01 /Users/corrado/Dropbox/experiments/surprise_control_exp/stim/5_noeffect.mov 676 25-May-2018 09:50:12 -3.946671e+02 2.261602e+02 0 0
88fs29_m20 578 34 18 45 -45 right 1 5.000000e-01 /Users/corrado/Dropbox/experiments/surprise_control_exp/stim/2_noeffect.mov 559 25-May-2018 09:50:15 -2.209922e+02 3.979717e+02 0 0
88fs29_m20 578 35 53 45 45 right 1 5.000000e-01 /Users/corrado/Dropbox/experiments/surprise_control_exp/stim/7_noeffect.mov 727 25-May-2018 09:50:18 2.108698e+02 2.616191e+02 0 0
88fs29_m20 578 36 46 45 -45 right 1 5.000000e-01 /Users/corrado/Dropbox/experiments/surprise_control_exp/stim/6_noeffect.mov 729 25-May-2018 09:50:33 -4.285854e+02 -4.854236e+02 0 1
88fs29_m20 578 37 12 -45 -45 left 1 5.000000e-01 /Users/corrado/Dropbox/experiments/surprise_control_exp/stim/2_noeffect.mov 777 25-May-2018 09:50:37 4.872081e+02 -2.394279e+02 0 0
88fs29_m20 578 38 68 -45 -45 left 1 5.000000e-01 /Users/corrado/Dropbox/experiments/surprise_control_exp/stim/9_noeffect.mov 709 25-May-2018 09:50:40 -2.142515e+02 -2.314594e+02 0 0
88fs29_m20 578 39 15 -45 45 left 1 5.000000e-01 /Users/corrado/Dropbox/experiments/surprise_control_exp/stim/2_noeffect.mov 710 25-May-2018 09:50:43 -2.146418e+02 3.262990e+02 0 0
88fs29_m20 578 40 31 -45 45 right 0 5.000000e-01 /Users/corrado/Dropbox/experiments/surprise_control_exp/stim/4_noeffect.mov 796 25-May-2018 09:51:01 4.328940e+01 2.753130e+02 0 1
88fs29_m20 578 41 73 45 45 right 1 5.000000e-01 /Users/corrado/Dropbox/experiments/surprise_control_exp/stim/9_noeffect.mov 709 25-May-2018 09:51:04 -2.541949e+02 2.243153e+02 0 0
88fs29_m20 578 42 75 -45 45 left 1 5.000000e-01 /Users/corrado/Dropbox/experiments/surprise_control_exp/stim/9_noeffect.mov 610 25-May-2018 09:51:07 8.636722e+01 4.319631e+02 0 0
88fs29_m20 578 43 66 45 -45 right 1 5.000000e-01 /Users/corrado/Dropbox/experiments/surprise_control_exp/stim/9_noeffect.mov 626 25-May-2018 09:51:10 1.398241e+02 2.113010e+02 0 0
88fs29_m20 578 44 65 45 45 right 1 5.000000e-01 /Users/corrado/Dropbox/experiments/surprise_control_exp/stim/9_noeffect.mov 1012 25-May-2018 09:51:33 -4.020194e+02 -4.493993e+02 0 1
88fs29_m20 578 45 62 45 -45 right 1 5.000000e-01 /Users/corrado/Dropbox/experiments/surprise_control_exp/stim/8_noeffect.mov 559 25-May-2018 09:51:36 -7.036861e+01 -2.188487e+02 0 0
88fs29_m20 578 46 23 -45 45 left 1 5.000000e-01 /Users/corrado/Dropbox/experiments/surprise_control_exp/stim/3_noeffect.mov 693 25-May-2018 09:51:39 4.198308e+02 -3.364737e+01 0 0
88fs29_m20 578 47 26 45 -45 right 1 5.000000e-01 /Users/corrado/Dropbox/experiments/surprise_control_exp/stim/4_noeffect.mov 593 25-May-2018 09:51:42 -1.618481e+01 -2.072007e+02 0 0
88fs29_m20 578 48 47 -45 45 left 1 5.000000e-01 /Users/corrado/Dropbox/experiments/surprise_control_exp/stim/6_noeffect.mov 630 25-May-2018 09:51:58 -4.029706e+02 -1.945736e+02 0 1
88fs29_m20 578 49 6 45 -45 right 1 5.000000e-01 /Users/corrado/Dropbox/experiments/surprise_control_exp/stim/1_noeffect.mov 508 25-May-2018 09:52:01 3.568606e+02 4.317499e+02 0 0
88fs29_m20 578 50 44 -45 -45 left 1 5.000000e-01 /Users/corrado/Dropbox/experiments/surprise_control_exp/stim/6_noeffect.mov 825 25-May-2018 09:52:04 -3.991222e+02 2.390058e+02 0 0
88fs29_m20 578 51 69 45 45 right 1 5.000000e-01 /Users/corrado/Dropbox/experiments/surprise_control_exp/stim/9_noeffect.mov 627 25-May-2018 09:52:07 7.660932e+00 -2.896557e+02 0 0
88fs29_m20 578 52 43 -45 45 left 1 5.000000e-01 /Users/corrado/Dropbox/experiments/surprise_control_exp/stim/6_noeffect.mov 964 25-May-2018 09:52:23 3.400678e+02 -4.397364e+02 0 1
88fs29_m20 578 53 76 -45 -45 right 0 5.000000e-01 /Users/corrado/Dropbox/experiments/surprise_control_exp/stim/9_noeffect.mov 525 25-May-2018 09:52:26 9.190908e+01 1.430125e+02 0 0
88fs29_m20 578 54 36 -45 -45 left 1 5.000000e-01 /Users/corrado/Dropbox/experiments/surprise_control_exp/stim/5_noeffect.mov 844 25-May-2018 09:52:29 4.452910e+02 -3.666668e+02 0 0
88fs29_m20 578 55 1 45 45 right 1 5.000000e-01 /Users/corrado/Dropbox/experiments/surprise_control_exp/stim/1_noeffect.mov 760 25-May-2018 09:52:33 -3.227848e+02 4.235246e+02 0 0
88fs29_m20 578 56 63 -45 45 left 1 5.000000e-01 /Users/corrado/Dropbox/experiments/surprise_control_exp/stim/8_noeffect.mov 897 25-May-2018 09:52:55 -3.502573e+02 1.522567e+02 0 1
88fs29_m20 578 57 67 -45 45 left 1 5.000000e-01 /Users/corrado/Dropbox/experiments/surprise_control_exp/stim/9_noeffect.mov 894 25-May-2018 09:52:58 -3.866005e+01 -4.110753e+02 0 0
88fs29_m20 578 58 59 -45 45 left 1 5.000000e-01 /Users/corrado/Dropbox/experiments/surprise_control_exp/stim/8_noeffect.mov 609 25-May-2018 09:53:01 -2.074011e+02 7.778880e+01 0 0
88fs29_m20 578 59 33 45 45 right 1 5.000000e-01 /Users/corrado/Dropbox/experiments/surprise_control_exp/stim/5_noeffect.mov 742 25-May-2018 09:53:05 -4.261384e+02 8.331442e+01 0 0
88fs29_m20 578 60 38 45 -45 right 1 5.000000e-01 /Users/corrado/Dropbox/experiments/surprise_control_exp/stim/5_noeffect.mov 696 25-May-2018 09:53:22 -3.459311e+02 4.790147e+02 0 1
88fs29_m20 578 61 54 45 -45 right 1 5.000000e-01 /Users/corrado/Dropbox/experiments/surprise_control_exp/stim/7_noeffect.mov 675 25-May-2018 09:53:25 4.548688e+02 4.069720e+02 0 0
88fs29_m20 578 62 51 -45 45 left 1 5.000000e-01 /Users/corrado/Dropbox/experiments/surprise_control_exp/stim/7_noeffect.mov 527 25-May-2018 09:53:28 1.106051e+02 1.477995e+02 0 0
88fs29_m20 578 63 57 45 45 right 1 5.000000e-01 /Users/corrado/Dropbox/experiments/surprise_control_exp/stim/8_noeffect.mov 725 25-May-2018 09:53:31 2.825711e+02 -4.995157e+02 0 0
88fs29_m20 578 64 7 -45 45 right 0 5.000000e-01 /Users/corrado/Dropbox/experiments/surprise_control_exp/stim/1_noeffect.mov 581 25-May-2018 09:53:58 1.624853e+02 4.376876e+02 0 1
88fs29_m20 578 65 40 -45 -45 left 1 5.000000e-01 /Users/corrado/Dropbox/experiments/surprise_control_exp/stim/5_noeffect.mov 742 25-May-2018 09:54:01 1.729290e+02 -4.390314e+01 0 0
88fs29_m20 578 66 61 45 45 right 1 5.000000e-01 /Users/corrado/Dropbox/experiments/surprise_control_exp/stim/8_noeffect.mov 625 25-May-2018 09:54:04 -4.077391e+02 -3.594960e+02 0 0
88fs29_m20 578 67 10 45 -45 right 1 5.000000e-01 /Users/corrado/Dropbox/experiments/surprise_control_exp/stim/2_noeffect.mov 576 25-May-2018 09:54:07 2.178780e+02 -1.551601e+02 0 0
88fs29_m20 578 68 3 -45 45 left 1 5.000000e-01 /Users/corrado/Dropbox/experiments/surprise_control_exp/stim/1_noeffect.mov 613 25-May-2018 09:54:33 2.060211e+02 2.689014e+02 0 1
88fs29_m20 578 69 30 45 -45 right 1 5.000000e-01 /Users/corrado/Dropbox/experiments/surprise_control_exp/stim/4_noeffect.mov 625 25-May-2018 09:54:36 1.680968e+02 4.724816e+02 0 0
88fs29_m20 578 70 60 -45 -45 left 1 5.000000e-01 /Users/corrado/Dropbox/experiments/surprise_control_exp/stim/8_noeffect.mov 709 25-May-2018 09:54:39 -3.417321e+02 -1.603643e+02 0 0
88fs29_m20 578 71 28 -45 -45 left 1 5.000000e-01 /Users/corrado/Dropbox/experiments/surprise_control_exp/stim/4_noeffect.mov 734 25-May-2018 09:54:42 4.574730e+02 3.183105e+02 0 0
88fs29_m20 578 72 17 45 45 right 1 5.000000e-01 /Users/corrado/Dropbox/experiments/surprise_control_exp/stim/2_noeffect.mov 779 25-May-2018 09:55:09 -1.150825e+02 -4.549793e+02 0 1
88fs29_m20 578 73 52 -45 -45 left 1 5.000000e-01 /Users/corrado/Dropbox/experiments/surprise_control_exp/stim/7_noeffect.mov 727 25-May-2018 09:55:12 -4.942132e+02 -4.110355e+02 0 0
88fs29_m20 578 74 20 -45 -45 left 1 5.000000e-01 /Users/corrado/Dropbox/experiments/surprise_control_exp/stim/2_noeffect.mov 792 25-May-2018 09:55:15 2.415756e+02 4.487818e+02 0 0
88fs29_m20 578 75 2 45 -45 right 1 5.000000e-01 /Users/corrado/Dropbox/experiments/surprise_control_exp/stim/1_noeffect.mov 610 25-May-2018 09:55:18 -4.241924e+02 2.647020e+02 0 0
88fs29_m20 578 76 74 45 -45 right 1 5.000000e-01 /Users/corrado/Dropbox/experiments/surprise_control_exp/stim/9_noeffect.mov 680 25-May-2018 09:55:41 -3.614191e+02 2.397676e+01 0 1
88fs29_m20 578 77 34 45 -45 right 1 5.000000e-01 /Users/corrado/Dropbox/experiments/surprise_control_exp/stim/5_noeffect.mov 659 25-May-2018 09:55:44 3.959788e+02 1.853795e+02 0 0
88fs29_m20 578 78 9 45 45 right 1 5.000000e-01 /Users/corrado/Dropbox/experiments/surprise_control_exp/stim/2_noeffect.mov 844 25-May-2018 09:55:47 1.989432e+02 -3.847103e+02 0 0
88fs29_m20 578 79 4 -45 -45 right 0 5.000000e-01 /Users/corrado/Dropbox/experiments/surprise_control_exp/stim/1_noeffect.mov 658 25-May-2018 09:55:50 1.828461e+01 1.614682e+02 0 0
88fs29_m20 578 80 58 45 -45 right 1 5.000000e-01 /Users/corrado/Dropbox/experiments/surprise_control_exp/stim/8_noeffect.mov 627 25-May-2018 09:55:53 4.349467e+02 3.448201e+02 0 0
