subject_name subjectNumber iTrial unshuffled_trial targetOrientation flankersOrientation response correct onscreen_stim_duration magicShows rt date time_of_day deltaX deltaY surpriseClip isClipTrial
54is03_f20 560 1 3 -45 45 left 1 5.000000e-01 /Users/corrado/Dropbox/experiments/surprise_control_exp/stim/1_noeffect.mov 746 25-May-2018 13:48:49 -4.880908e+01 -3.746989e+02 0 1
54is03_f20 560 2 51 -45 45 left 1 5.000000e-01 /Users/corrado/Dropbox/experiments/surprise_control_exp/stim/7_noeffect.mov 744 25-May-2018 13:48:52 -2.026212e+01 -4.787557e+02 0 0
54is03_f20 560 3 12 -45 -45 left 1 5.000000e-01 /Users/corrado/Dropbox/experiments/surprise_control_exp/stim/2_noeffect.mov 560 25-May-2018 13:48:55 4.040990e+02 -4.707722e+02 0 0
54is03_f20 560 4 33 45 45 right 1 5.000000e-01 /Users/corrado/Dropbox/experiments/surprise_control_exp/stim/5_noeffect.mov 832 25-May-2018 13:49:13 3.971923e+02 2.853179e+02 0 1
54is03_f20 560 5 66 45 -45 right 1 5.000000e-01 /Users/corrado/Dropbox/experiments/surprise_control_exp/stim/9_noeffect.mov 609 25-May-2018 13:49:16 -4.181674e+02 3.656978e+02 0 0
54is03_f20 560 6 10 45 -45 left 0 5.000000e-01 /Users/corrado/Dropbox/experiments/surprise_control_exp/stim/2_noeffect.mov 527 25-May-2018 13:49:19 -1.482785e+02 4.553979e+02 0 0
54is03_f20 560 7 35 -45 45 left 1 5.000000e-01 /Users/corrado/Dropbox/experiments/surprise_control_exp/stim/5_noeffect.mov 1361 25-May-2018 13:49:22 -4.277446e+02 -1.042945e+02 0 0
54is03_f20 560 8 41 45 45 right 1 5.000000e-01 /Users/corrado/Dropbox/experiments/surprise_control_exp/stim/6_noeffect.mov 766 25-May-2018 13:49:38 -3.582896e+02 -2.705016e+01 0 1
54is03_f20 560 9 24 -45 -45 right 0 5.000000e-01 /Users/corrado/Dropbox/experiments/surprise_control_exp/stim/3_noeffect.mov 1028 25-May-2018 13:49:42 -9.871812e+01 -4.100564e+02 0 0
54is03_f20 560 10 31 -45 45 left 1 5.000000e-01 /Users/corrado/Dropbox/experiments/surprise_control_exp/stim/4_noeffect.mov 958 25-May-2018 13:49:45 -3.831134e+02 -1.786523e+02 0 0
54is03_f20 560 11 22 45 -45 right 1 5.000000e-01 /Users/corrado/Dropbox/experiments/surprise_control_exp/stim/3_noeffect.mov 593 25-May-2018 13:49:48 -3.408810e+02 -1.395837e+02 0 0
54is03_f20 560 12 78 45 -45 right 1 5.000000e-01 /Users/corrado/Dropbox/experiments/surprise_control_exp/stim/9_noeffect.mov 646 25-May-2018 13:50:11 -2.125091e+02 -4.093325e+02 0 1
54is03_f20 560 13 16 -45 -45 right 0 5.000000e-01 /Users/corrado/Dropbox/experiments/surprise_control_exp/stim/2_noeffect.mov 477 25-May-2018 13:50:14 1.400435e+02 -2.871308e+02 0 0
54is03_f20 560 14 76 -45 -45 left 1 5.000000e-01 /Users/corrado/Dropbox/experiments/surprise_control_exp/stim/9_noeffect.mov 967 25-May-2018 13:50:17 1.736460e+02 -4.998228e+02 0 0
54is03_f20 560 15 39 -45 45 left 1 5.000000e-01 /Users/corrado/Dropbox/experiments/surprise_control_exp/stim/5_noeffect.mov 626 25-May-2018 13:50:20 -4.050804e+02 1.230929e+02 0 0
54is03_f20 560 16 79 -45 45 left 1 5.000000e-01 /Users/corrado/Dropbox/experiments/surprise_control_exp/stim/9_noeffect.mov 846 25-May-2018 13:50:43 -3.756782e+02 -4.048035e+01 0 1
54is03_f20 560 17 26 45 -45 right 1 5.000000e-01 /Users/corrado/Dropbox/experiments/surprise_control_exp/stim/4_noeffect.mov 551 25-May-2018 13:50:46 -2.557130e+02 3.688567e+02 0 0
54is03_f20 560 18 4 -45 -45 right 0 5.000000e-01 /Users/corrado/Dropbox/experiments/surprise_control_exp/stim/1_noeffect.mov 558 25-May-2018 13:50:49 -3.388958e+00 -4.854856e+02 0 0
54is03_f20 560 19 20 -45 -45 left 1 5.000000e-01 /Users/corrado/Dropbox/experiments/surprise_control_exp/stim/2_noeffect.mov 543 25-May-2018 13:50:52 -4.404539e+02 4.580610e+02 0 0
54is03_f20 560 20 65 45 45 right 1 5.000000e-01 /Users/corrado/Dropbox/experiments/surprise_control_exp/stim/9_noeffect.mov 796 25-May-2018 13:51:15 -2.782636e+02 2.890782e+02 0 1
54is03_f20 560 21 27 -45 45 right 0 5.000000e-01 /Users/corrado/Dropbox/experiments/surprise_control_exp/stim/4_noeffect.mov 826 25-May-2018 13:51:18 7.072176e+01 -6.196499e+01 0 0
54is03_f20 560 22 75 -45 45 left 1 5.000000e-01 /Users/corrado/Dropbox/experiments/surprise_control_exp/stim/9_noeffect.mov 910 25-May-2018 13:51:21 4.971065e+02 -4.033360e+02 0 0
54is03_f20 560 23 63 -45 45 left 1 5.000000e-01 /Users/corrado/Dropbox/experiments/surprise_control_exp/stim/8_noeffect.mov 725 25-May-2018 13:51:24 -4.569430e+02 4.524824e+01 0 0
54is03_f20 560 24 54 45 -45 right 1 5.000000e-01 /Users/corrado/Dropbox/experiments/surprise_control_exp/stim/7_noeffect.mov 830 25-May-2018 13:51:45 -4.292444e+02 9.378823e+01 0 1
54is03_f20 560 25 28 -45 -45 left 1 5.000000e-01 /Users/corrado/Dropbox/experiments/surprise_control_exp/stim/4_noeffect.mov 643 25-May-2018 13:51:48 3.989739e+01 4.424989e+02 0 0
54is03_f20 560 26 34 45 -45 right 1 5.000000e-01 /Users/corrado/Dropbox/experiments/surprise_control_exp/stim/5_noeffect.mov 742 25-May-2018 13:51:51 -4.614485e+02 -4.558742e+02 0 0
54is03_f20 560 27 56 -45 -45 left 1 5.000000e-01 /Users/corrado/Dropbox/experiments/surprise_control_exp/stim/7_noeffect.mov 715 25-May-2018 13:51:54 -3.594125e+01 -1.662881e+02 0 0
54is03_f20 560 28 14 45 -45 right 1 5.000000e-01 /Users/corrado/Dropbox/experiments/surprise_control_exp/stim/2_noeffect.mov 811 25-May-2018 13:52:20 1.412286e+02 -4.886581e+02 0 1
54is03_f20 560 29 68 -45 -45 left 1 5.000000e-01 /Users/corrado/Dropbox/experiments/surprise_control_exp/stim/9_noeffect.mov 709 25-May-2018 13:52:23 -1.976455e+00 3.033828e+02 0 0
54is03_f20 560 30 80 -45 -45 left 1 5.000000e-01 /Users/corrado/Dropbox/experiments/surprise_control_exp/stim/9_noeffect.mov 692 25-May-2018 13:52:26 2.336346e+02 1.834439e+02 0 0
54is03_f20 560 31 55 -45 45 left 1 5.000000e-01 /Users/corrado/Dropbox/experiments/surprise_control_exp/stim/7_noeffect.mov 477 25-May-2018 13:52:29 3.685891e+01 -4.325305e+02 0 0
54is03_f20 560 32 45 45 45 right 1 5.000000e-01 /Users/corrado/Dropbox/experiments/surprise_control_exp/stim/6_noeffect.mov 1063 25-May-2018 13:52:45 -4.840009e+02 -4.795243e+02 0 1
54is03_f20 560 33 2 45 -45 right 1 5.000000e-01 /Users/corrado/Dropbox/experiments/surprise_control_exp/stim/1_noeffect.mov 509 25-May-2018 13:52:48 8.845198e+01 -4.206308e+01 0 0
54is03_f20 560 34 61 45 45 right 1 5.000000e-01 /Users/corrado/Dropbox/experiments/surprise_control_exp/stim/8_noeffect.mov 386 25-May-2018 13:52:51 1.489723e+02 -1.819468e+02 0 0
54is03_f20 560 35 29 45 45 right 1 5.000000e-01 /Users/corrado/Dropbox/experiments/surprise_control_exp/stim/4_noeffect.mov 643 25-May-2018 13:52:54 -4.175765e+02 4.749907e+02 0 0
54is03_f20 560 36 21 45 45 right 1 5.000000e-01 /Users/corrado/Dropbox/experiments/surprise_control_exp/stim/3_noeffect.mov 796 25-May-2018 13:53:13 4.038896e+02 3.825218e+01 0 1
54is03_f20 560 37 43 -45 45 left 1 5.000000e-01 /Users/corrado/Dropbox/experiments/surprise_control_exp/stim/6_noeffect.mov 628 25-May-2018 13:53:16 -2.081801e+02 -4.805935e+02 0 0
54is03_f20 560 38 42 45 -45 right 1 5.000000e-01 /Users/corrado/Dropbox/experiments/surprise_control_exp/stim/6_noeffect.mov 525 25-May-2018 13:53:19 -2.955176e+02 -1.783357e+02 0 0
54is03_f20 560 39 32 -45 -45 left 1 5.000000e-01 /Users/corrado/Dropbox/experiments/surprise_control_exp/stim/4_noeffect.mov 576 25-May-2018 13:53:22 -3.192330e+02 -2.654485e+02 0 0
54is03_f20 560 40 67 -45 45 left 1 5.000000e-01 /Users/corrado/Dropbox/experiments/surprise_control_exp/stim/9_noeffect.mov 1014 25-May-2018 13:53:46 8.892519e+01 2.094299e+02 0 1
54is03_f20 560 41 73 45 45 right 1 5.000000e-01 /Users/corrado/Dropbox/experiments/surprise_control_exp/stim/9_noeffect.mov 927 25-May-2018 13:53:49 3.715647e+02 1.345714e+02 0 0
54is03_f20 560 42 37 45 45 left 0 5.000000e-01 /Users/corrado/Dropbox/experiments/surprise_control_exp/stim/5_noeffect.mov 725 25-May-2018 13:53:52 4.112222e+00 -3.211692e+02 0 0
54is03_f20 560 43 60 -45 -45 left 1 5.000000e-01 /Users/corrado/Dropbox/experiments/surprise_control_exp/stim/8_noeffect.mov 692 25-May-2018 13:53:55 7.191811e+00 -2.479420e+02 0 0
54is03_f20 560 44 19 -45 45 left 1 5.000000e-01 /Users/corrado/Dropbox/experiments/surprise_control_exp/stim/2_noeffect.mov 814 25-May-2018 13:54:22 -9.668261e+01 -7.700438e+01 0 1
54is03_f20 560 45 13 45 45 right 1 5.000000e-01 /Users/corrado/Dropbox/experiments/surprise_control_exp/stim/2_noeffect.mov 758 25-May-2018 13:54:25 -4.075516e+02 -3.202257e+02 0 0
54is03_f20 560 46 53 45 45 right 1 5.000000e-01 /Users/corrado/Dropbox/experiments/surprise_control_exp/stim/7_noeffect.mov 446 25-May-2018 13:54:28 3.493437e+02 -3.870862e+02 0 0
54is03_f20 560 47 23 -45 45 left 1 5.000000e-01 /Users/corrado/Dropbox/experiments/surprise_control_exp/stim/3_noeffect.mov 626 25-May-2018 13:54:31 -9.201179e+01 -4.937187e+02 0 0
54is03_f20 560 48 49 45 45 right 1 5.000000e-01 /Users/corrado/Dropbox/experiments/surprise_control_exp/stim/7_noeffect.mov 730 25-May-2018 13:54:51 -2.084461e+02 -4.055903e+02 0 1
54is03_f20 560 49 25 45 45 right 1 5.000000e-01 /Users/corrado/Dropbox/experiments/surprise_control_exp/stim/4_noeffect.mov 558 25-May-2018 13:54:54 -4.518645e+02 2.805740e+02 0 0
54is03_f20 560 50 5 45 45 right 1 5.000000e-01 /Users/corrado/Dropbox/experiments/surprise_control_exp/stim/1_noeffect.mov 877 25-May-2018 13:54:57 4.952814e+02 -3.736919e+02 0 0
54is03_f20 560 51 72 -45 -45 left 1 5.000000e-01 /Users/corrado/Dropbox/experiments/surprise_control_exp/stim/9_noeffect.mov 649 25-May-2018 13:55:00 -4.682605e+02 -4.906510e+02 0 0
54is03_f20 560 52 50 45 -45 right 1 5.000000e-01 /Users/corrado/Dropbox/experiments/surprise_control_exp/stim/7_noeffect.mov 979 25-May-2018 13:55:20 -1.260864e+02 4.828458e+02 0 1
54is03_f20 560 53 77 45 45 right 1 5.000000e-01 /Users/corrado/Dropbox/experiments/surprise_control_exp/stim/9_noeffect.mov 559 25-May-2018 13:55:23 -2.974027e+02 -2.535664e+02 0 0
54is03_f20 560 54 1 45 45 right 1 5.000000e-01 /Users/corrado/Dropbox/experiments/surprise_control_exp/stim/1_noeffect.mov 577 25-May-2018 13:55:26 -1.254120e+02 -9.673431e+01 0 0
54is03_f20 560 55 44 -45 -45 left 1 5.000000e-01 /Users/corrado/Dropbox/experiments/surprise_control_exp/stim/6_noeffect.mov 525 25-May-2018 13:55:29 -3.312911e+02 2.551270e+02 0 0
54is03_f20 560 56 15 -45 45 left 1 5.000000e-01 /Users/corrado/Dropbox/experiments/surprise_control_exp/stim/2_noeffect.mov 861 25-May-2018 13:55:55 4.318585e+02 -7.745758e+01 0 1
54is03_f20 560 57 17 45 45 right 1 5.000000e-01 /Users/corrado/Dropbox/experiments/surprise_control_exp/stim/2_noeffect.mov 593 25-May-2018 13:55:58 2.062080e+02 1.051341e+02 0 0
54is03_f20 560 58 74 45 -45 right 1 5.000000e-01 /Users/corrado/Dropbox/experiments/surprise_control_exp/stim/9_noeffect.mov 642 25-May-2018 13:56:01 -4.971098e+02 2.770370e+02 0 0
54is03_f20 560 59 69 45 45 right 1 5.000000e-01 /Users/corrado/Dropbox/experiments/surprise_control_exp/stim/9_noeffect.mov 457 25-May-2018 13:56:04 -4.375739e+02 -1.467891e+02 0 0
54is03_f20 560 60 40 -45 -45 left 1 5.000000e-01 /Users/corrado/Dropbox/experiments/surprise_control_exp/stim/5_noeffect.mov 764 25-May-2018 13:56:22 -1.173394e+02 1.621890e+02 0 1
54is03_f20 560 61 62 45 -45 right 1 5.000000e-01 /Users/corrado/Dropbox/experiments/surprise_control_exp/stim/8_noeffect.mov 542 25-May-2018 13:56:25 -2.541423e+02 2.646076e+02 0 0
54is03_f20 560 62 48 -45 -45 left 1 5.000000e-01 /Users/corrado/Dropbox/experiments/surprise_control_exp/stim/6_noeffect.mov 793 25-May-2018 13:56:28 3.600230e+02 -1.883621e+02 0 0
54is03_f20 560 63 58 45 -45 right 1 5.000000e-01 /Users/corrado/Dropbox/experiments/surprise_control_exp/stim/8_noeffect.mov 592 25-May-2018 13:56:31 -3.563814e+02 1.171489e+02 0 0
54is03_f20 560 64 18 45 -45 NORESP 0 5.000000e-01 /Users/corrado/Dropbox/experiments/surprise_control_exp/stim/2_noeffect.mov 3014 25-May-2018 13:56:59 1.525022e+02 3.717291e+02 0 1
54is03_f20 560 65 8 -45 -45 left 1 5.000000e-01 /Users/corrado/Dropbox/experiments/surprise_control_exp/stim/1_noeffect.mov 725 25-May-2018 13:57:02 -4.639105e+02 7.456447e+01 0 0
54is03_f20 560 66 30 45 -45 right 1 5.000000e-01 /Users/corrado/Dropbox/experiments/surprise_control_exp/stim/4_noeffect.mov 542 25-May-2018 13:57:05 -8.871650e+01 3.580000e+02 0 0
54is03_f20 560 67 36 -45 -45 left 1 5.000000e-01 /Users/corrado/Dropbox/experiments/surprise_control_exp/stim/5_noeffect.mov 943 25-May-2018 13:57:08 1.227290e+02 -2.507657e+02 0 0
54is03_f20 560 68 9 45 45 right 1 5.000000e-01 /Users/corrado/Dropbox/experiments/surprise_control_exp/stim/2_noeffect.mov 828 25-May-2018 13:57:35 -3.526603e+02 -2.969685e+02 0 1
54is03_f20 560 69 59 -45 45 left 1 5.000000e-01 /Users/corrado/Dropbox/experiments/surprise_control_exp/stim/8_noeffect.mov 660 25-May-2018 13:57:38 -3.075468e+02 -4.271656e+02 0 0
54is03_f20 560 70 7 -45 45 left 1 5.000000e-01 /Users/corrado/Dropbox/experiments/surprise_control_exp/stim/1_noeffect.mov 642 25-May-2018 13:57:41 -1.947079e+02 -4.879646e+02 0 0
54is03_f20 560 71 38 45 -45 right 1 5.000000e-01 /Users/corrado/Dropbox/experiments/surprise_control_exp/stim/5_noeffect.mov 471 25-May-2018 13:57:44 1.593962e+02 1.043481e+02 0 0
54is03_f20 560 72 47 -45 45 left 1 5.000000e-01 /Users/corrado/Dropbox/experiments/surprise_control_exp/stim/6_noeffect.mov 1246 25-May-2018 13:58:00 2.067105e+02 4.745946e+02 0 1
54is03_f20 560 73 57 45 45 right 1 5.000000e-01 /Users/corrado/Dropbox/experiments/surprise_control_exp/stim/8_noeffect.mov 440 25-May-2018 13:58:03 1.599859e+02 2.984406e+02 0 0
54is03_f20 560 74 6 45 -45 right 1 5.000000e-01 /Users/corrado/Dropbox/experiments/surprise_control_exp/stim/1_noeffect.mov 470 25-May-2018 13:58:05 -1.840550e+02 1.794819e+02 0 0
54is03_f20 560 75 11 -45 45 right 0 5.000000e-01 /Users/corrado/Dropbox/experiments/surprise_control_exp/stim/2_noeffect.mov 356 25-May-2018 13:58:08 1.072626e+02 2.922955e+02 0 0
54is03_f20 560 76 52 -45 -45 left 1 5.000000e-01 /Users/corrado/Dropbox/experiments/surprise_control_exp/stim/7_noeffect.mov 846 25-May-2018 13:58:28 -3.305046e+02 9.172692e+01 0 1
54is03_f20 560 77 64 -45 -45 left 1 5.000000e-01 /Users/corrado/Dropbox/experiments/surprise_control_exp/stim/8_noeffect.mov 578 25-May-2018 13:58:31 4.497274e+01 -4.543148e+02 0 0
54is03_f20 560 78 46 45 -45 right 1 5.000000e-01 /Users/corrado/Dropbox/experiments/surprise_control_exp/stim/6_noeffect.mov 526 25-May-2018 13:58:34 2.292205e+02 4.097881e+02 0 0
54is03_f20 560 79 71 -45 45 left 1 5.000000e-01 /Users/corrado/Dropbox/experiments/surprise_control_exp/stim/9_noeffect.mov 543 25-May-2018 13:58:37 1.948467e+02 -2.754975e+01 0 0
54is03_f20 560 80 70 45 -45 left 0 5.000000e-01 /Users/corrado/Dropbox/experiments/surprise_control_exp/stim/9_noeffect.mov 682 25-May-2018 13:58:40 2.283640e+02 -4.984970e+02 0 0
