subject_name subjectNumber iTrial unshuffled_trial targetOrientation flankersOrientation response correct onscreen_stim_duration magicShows rt date time_of_day deltaX deltaY surpriseClip isClipTrial
74GM03_F34 4 1 30 45 -45 right 1 5.000000e-01 /Users/lab/Documents/magic_control_exp/stim/4_noeffect.mov 864 26-Sep-2017 11:53:31 -3.010257e+01 -2.988169e+02 0 1
74GM03_F34 4 2 69 45 45 left 0 5.000000e-01 /Users/lab/Documents/magic_control_exp/stim/9_noeffect.mov 628 26-Sep-2017 11:53:34 -1.503456e+02 -2.805700e+02 0 0
74GM03_F34 4 3 71 -45 45 left 1 5.000000e-01 /Users/lab/Documents/magic_control_exp/stim/9_noeffect.mov 647 26-Sep-2017 11:53:37 -3.473203e+02 -4.412917e+02 0 0
74GM03_F34 4 4 26 45 -45 right 1 5.000000e-01 /Users/lab/Documents/magic_control_exp/stim/4_noeffect.mov 698 26-Sep-2017 11:53:56 -4.813302e+02 2.557352e+02 0 1
74GM03_F34 4 5 46 45 -45 right 1 5.000000e-01 /Users/lab/Documents/magic_control_exp/stim/6_noeffect.mov 768 26-Sep-2017 11:53:59 -3.858070e+02 -2.540910e+02 0 0
74GM03_F34 4 6 79 -45 45 left 1 5.000000e-01 /Users/lab/Documents/magic_control_exp/stim/9_noeffect.mov 945 26-Sep-2017 11:54:02 -2.754507e+02 1.117797e+02 0 0
74GM03_F34 4 7 37 45 45 right 1 5.000000e-01 /Users/lab/Documents/magic_control_exp/stim/5_noeffect.mov 744 26-Sep-2017 11:54:05 -3.636505e+02 -2.547643e+02 0 0
74GM03_F34 4 8 42 45 -45 right 1 5.000000e-01 /Users/lab/Documents/magic_control_exp/stim/6_noeffect.mov 747 26-Sep-2017 11:54:21 -3.292911e+02 -3.271678e+02 0 1
74GM03_F34 4 9 23 -45 45 left 1 5.000000e-01 /Users/lab/Documents/magic_control_exp/stim/3_noeffect.mov 980 26-Sep-2017 11:54:24 -2.441140e+02 4.460839e+02 0 0
74GM03_F34 4 10 65 45 45 right 1 5.000000e-01 /Users/lab/Documents/magic_control_exp/stim/9_noeffect.mov 626 26-Sep-2017 11:54:27 1.024673e+02 -1.171098e+02 0 0
74GM03_F34 4 11 3 -45 45 left 1 5.000000e-01 /Users/lab/Documents/magic_control_exp/stim/1_noeffect.mov 744 26-Sep-2017 11:54:30 3.733846e+02 1.923507e+02 0 0
74GM03_F34 4 12 57 45 45 right 1 5.000000e-01 /Users/lab/Documents/magic_control_exp/stim/8_noeffect.mov 729 26-Sep-2017 11:54:52 9.886754e+01 -3.887330e+02 0 1
74GM03_F34 4 13 18 45 -45 right 1 5.000000e-01 /Users/lab/Documents/magic_control_exp/stim/2_noeffect.mov 817 26-Sep-2017 11:54:56 3.019816e+02 -3.704960e+02 0 0
74GM03_F34 4 14 47 -45 45 left 1 5.000000e-01 /Users/lab/Documents/magic_control_exp/stim/6_noeffect.mov 944 26-Sep-2017 11:54:59 -3.065512e+02 3.103887e+02 0 0
74GM03_F34 4 15 28 -45 -45 left 1 5.000000e-01 /Users/lab/Documents/magic_control_exp/stim/4_noeffect.mov 694 26-Sep-2017 11:55:02 -8.023422e+01 8.099389e+01 0 0
74GM03_F34 4 16 66 45 -45 right 1 5.000000e-01 /Users/lab/Documents/magic_control_exp/stim/9_noeffect.mov 646 26-Sep-2017 11:55:25 -1.592997e+02 -3.055476e+02 0 1
74GM03_F34 4 17 45 45 45 right 1 5.000000e-01 /Users/lab/Documents/magic_control_exp/stim/6_noeffect.mov 845 26-Sep-2017 11:55:28 1.318186e+01 2.005864e+02 0 0
74GM03_F34 4 18 49 45 45 right 1 5.000000e-01 /Users/lab/Documents/magic_control_exp/stim/7_noeffect.mov 894 26-Sep-2017 11:55:31 3.845526e+02 3.660008e+02 0 0
74GM03_F34 4 19 50 45 -45 right 1 5.000000e-01 /Users/lab/Documents/magic_control_exp/stim/7_noeffect.mov 743 26-Sep-2017 11:55:34 -4.855094e+01 5.952323e+01 0 0
74GM03_F34 4 20 17 45 45 right 1 5.000000e-01 /Users/lab/Documents/magic_control_exp/stim/2_noeffect.mov 763 26-Sep-2017 11:56:01 -8.229372e+01 4.033647e+02 0 1
74GM03_F34 4 21 41 45 45 right 1 5.000000e-01 /Users/lab/Documents/magic_control_exp/stim/6_noeffect.mov 660 26-Sep-2017 11:56:04 -4.280881e+02 -1.310142e+02 0 0
74GM03_F34 4 22 38 45 -45 right 1 5.000000e-01 /Users/lab/Documents/magic_control_exp/stim/5_noeffect.mov 817 26-Sep-2017 11:56:07 -1.639381e+02 3.198180e+02 0 0
74GM03_F34 4 23 78 45 -45 right 1 5.000000e-01 /Users/lab/Documents/magic_control_exp/stim/9_noeffect.mov 693 26-Sep-2017 11:56:10 2.063261e+02 -4.713367e+02 0 0
74GM03_F34 4 24 63 -45 45 left 1 5.000000e-01 /Users/lab/Documents/magic_control_exp/stim/8_noeffect.mov 1079 26-Sep-2017 11:56:33 -1.984179e+02 -1.820108e+02 0 1
74GM03_F34 4 25 53 45 45 right 1 5.000000e-01 /Users/lab/Documents/magic_control_exp/stim/7_noeffect.mov 711 26-Sep-2017 11:56:36 3.008818e+02 -1.551100e+02 0 0
74GM03_F34 4 26 14 45 -45 right 1 5.000000e-01 /Users/lab/Documents/magic_control_exp/stim/2_noeffect.mov 568 26-Sep-2017 11:56:39 -2.710838e+02 -4.507253e+02 0 0
74GM03_F34 4 27 59 -45 45 left 1 5.000000e-01 /Users/lab/Documents/magic_control_exp/stim/8_noeffect.mov 592 26-Sep-2017 11:56:41 1.646470e+02 -3.430723e+02 0 0
74GM03_F34 4 28 1 45 45 left 0 5.000000e-01 /Users/lab/Documents/magic_control_exp/stim/1_noeffect.mov 549 26-Sep-2017 11:57:08 -1.252050e+02 -2.250597e+02 0 1
74GM03_F34 4 29 19 -45 45 left 1 5.000000e-01 /Users/lab/Documents/magic_control_exp/stim/2_noeffect.mov 635 26-Sep-2017 11:57:11 1.588574e+02 2.351022e+02 0 0
74GM03_F34 4 30 72 -45 -45 left 1 5.000000e-01 /Users/lab/Documents/magic_control_exp/stim/9_noeffect.mov 660 26-Sep-2017 11:57:14 -2.712121e+02 3.852004e+02 0 0
74GM03_F34 4 31 6 45 -45 right 1 5.000000e-01 /Users/lab/Documents/magic_control_exp/stim/1_noeffect.mov 709 26-Sep-2017 11:57:17 9.674011e+01 2.572219e+02 0 0
74GM03_F34 4 32 9 45 45 right 1 5.000000e-01 /Users/lab/Documents/magic_control_exp/stim/2_noeffect.mov 832 26-Sep-2017 11:57:43 -2.824694e+02 3.869706e+02 0 1
74GM03_F34 4 33 44 -45 -45 left 1 5.000000e-01 /Users/lab/Documents/magic_control_exp/stim/6_noeffect.mov 945 26-Sep-2017 11:57:47 -4.554513e+02 1.160960e+02 0 0
74GM03_F34 4 34 33 45 45 right 1 5.000000e-01 /Users/lab/Documents/magic_control_exp/stim/5_noeffect.mov 486 26-Sep-2017 11:57:49 2.226249e+02 -1.446298e+02 0 0
74GM03_F34 4 35 60 -45 -45 left 1 5.000000e-01 /Users/lab/Documents/magic_control_exp/stim/8_noeffect.mov 994 26-Sep-2017 11:57:53 1.791764e+02 -2.598391e+02 0 0
74GM03_F34 4 36 34 45 -45 right 1 5.000000e-01 /Users/lab/Documents/magic_control_exp/stim/5_noeffect.mov 730 26-Sep-2017 11:58:10 -1.297415e+02 -2.565182e+02 0 1
74GM03_F34 4 37 20 -45 -45 left 1 5.000000e-01 /Users/lab/Documents/magic_control_exp/stim/2_noeffect.mov 662 26-Sep-2017 11:58:13 2.245416e+02 -1.060349e+01 0 0
74GM03_F34 4 38 36 -45 -45 left 1 5.000000e-01 /Users/lab/Documents/magic_control_exp/stim/5_noeffect.mov 684 26-Sep-2017 11:58:16 2.015868e+02 1.975586e+01 0 0
74GM03_F34 4 39 27 -45 45 left 1 5.000000e-01 /Users/lab/Documents/magic_control_exp/stim/4_noeffect.mov 693 26-Sep-2017 11:58:19 6.751344e+01 3.893004e+02 0 0
74GM03_F34 4 40 75 -45 45 left 1 5.000000e-01 /Users/lab/Documents/magic_control_exp/stim/9_noeffect.mov 764 26-Sep-2017 11:58:42 3.896142e+02 -8.804840e+01 0 1
74GM03_F34 4 41 2 45 -45 right 1 5.000000e-01 /Users/lab/Documents/magic_control_exp/stim/1_noeffect.mov 617 26-Sep-2017 11:58:45 -1.871514e+02 4.780526e+02 0 0
74GM03_F34 4 42 8 -45 -45 left 1 5.000000e-01 /Users/lab/Documents/magic_control_exp/stim/1_noeffect.mov 660 26-Sep-2017 11:58:48 -4.529828e+02 -2.950682e+02 0 0
74GM03_F34 4 43 68 -45 -45 left 1 5.000000e-01 /Users/lab/Documents/magic_control_exp/stim/9_noeffect.mov 483 26-Sep-2017 11:58:51 -2.365541e+02 -2.463235e+02 0 0
74GM03_F34 4 44 77 45 45 right 1 5.000000e-01 /Users/lab/Documents/magic_control_exp/stim/9_noeffect.mov 1064 26-Sep-2017 11:59:15 2.962408e+02 -4.750052e+02 0 1
74GM03_F34 4 45 29 45 45 right 1 5.000000e-01 /Users/lab/Documents/magic_control_exp/stim/4_noeffect.mov 694 26-Sep-2017 11:59:18 3.871697e+02 -3.425896e+01 0 0
74GM03_F34 4 46 11 -45 45 left 1 5.000000e-01 /Users/lab/Documents/magic_control_exp/stim/2_noeffect.mov 560 26-Sep-2017 11:59:21 -4.234332e+02 -4.632479e+01 0 0
74GM03_F34 4 47 35 -45 45 left 1 5.000000e-01 /Users/lab/Documents/magic_control_exp/stim/5_noeffect.mov 577 26-Sep-2017 11:59:23 1.144252e+02 3.043107e+02 0 0
74GM03_F34 4 48 54 45 -45 right 1 5.000000e-01 /Users/lab/Documents/magic_control_exp/stim/7_noeffect.mov 682 26-Sep-2017 11:59:44 7.815918e+01 2.636121e+02 0 1
74GM03_F34 4 49 32 -45 -45 left 1 5.000000e-01 /Users/lab/Documents/magic_control_exp/stim/4_noeffect.mov 489 26-Sep-2017 11:59:46 -3.490063e+02 4.026633e+02 0 0
74GM03_F34 4 50 61 45 45 right 1 5.000000e-01 /Users/lab/Documents/magic_control_exp/stim/8_noeffect.mov 399 26-Sep-2017 11:59:49 2.841243e+02 -4.017797e+02 0 0
74GM03_F34 4 51 12 -45 -45 left 1 5.000000e-01 /Users/lab/Documents/magic_control_exp/stim/2_noeffect.mov 454 26-Sep-2017 11:59:52 -3.640987e+01 1.072745e+02 0 0
74GM03_F34 4 52 13 45 45 right 1 5.000000e-01 /Users/lab/Documents/magic_control_exp/stim/2_noeffect.mov 1032 26-Sep-2017 12:00:19 -3.187424e+02 1.322631e+02 0 1
74GM03_F34 4 53 76 -45 -45 left 1 5.000000e-01 /Users/lab/Documents/magic_control_exp/stim/9_noeffect.mov 527 26-Sep-2017 12:00:22 1.479244e+02 -3.339982e+02 0 0
74GM03_F34 4 54 25 45 45 right 1 5.000000e-01 /Users/lab/Documents/magic_control_exp/stim/4_noeffect.mov 472 26-Sep-2017 12:00:24 -1.793896e+02 -6.777481e+01 0 0
74GM03_F34 4 55 80 -45 -45 left 1 5.000000e-01 /Users/lab/Documents/magic_control_exp/stim/9_noeffect.mov 440 26-Sep-2017 12:00:27 -1.982205e+01 3.394382e+02 0 0
74GM03_F34 4 56 67 -45 45 left 1 5.000000e-01 /Users/lab/Documents/magic_control_exp/stim/9_noeffect.mov 782 26-Sep-2017 12:00:50 3.878641e+02 7.993018e+01 0 1
74GM03_F34 4 57 58 45 -45 right 1 5.000000e-01 /Users/lab/Documents/magic_control_exp/stim/8_noeffect.mov 577 26-Sep-2017 12:00:53 -4.229807e+02 1.679087e+01 0 0
74GM03_F34 4 58 4 -45 -45 left 1 5.000000e-01 /Users/lab/Documents/magic_control_exp/stim/1_noeffect.mov 559 26-Sep-2017 12:00:56 -3.062966e+02 1.901322e+02 0 0
74GM03_F34 4 59 7 -45 45 left 1 5.000000e-01 /Users/lab/Documents/magic_control_exp/stim/1_noeffect.mov 743 26-Sep-2017 12:00:59 -2.026005e+02 -4.823965e+02 0 0
74GM03_F34 4 60 24 -45 -45 left 1 5.000000e-01 /Users/lab/Documents/magic_control_exp/stim/3_noeffect.mov 798 26-Sep-2017 12:01:19 -4.248734e+02 2.304157e+02 0 1
74GM03_F34 4 61 70 45 -45 right 1 5.000000e-01 /Users/lab/Documents/magic_control_exp/stim/9_noeffect.mov 860 26-Sep-2017 12:01:22 4.705180e+02 -3.869940e+02 0 0
74GM03_F34 4 62 15 -45 45 left 1 5.000000e-01 /Users/lab/Documents/magic_control_exp/stim/2_noeffect.mov 635 26-Sep-2017 12:01:25 1.781592e+02 4.625948e+02 0 0
74GM03_F34 4 63 56 -45 -45 left 1 5.000000e-01 /Users/lab/Documents/magic_control_exp/stim/7_noeffect.mov 594 26-Sep-2017 12:01:28 -3.324269e+02 8.105394e+01 0 0
74GM03_F34 4 64 43 -45 45 left 1 5.000000e-01 /Users/lab/Documents/magic_control_exp/stim/6_noeffect.mov 698 26-Sep-2017 12:01:43 -4.532019e+02 -1.813204e+02 0 1
74GM03_F34 4 65 31 -45 45 left 1 5.000000e-01 /Users/lab/Documents/magic_control_exp/stim/4_noeffect.mov 627 26-Sep-2017 12:01:46 4.217567e+02 3.308144e+02 0 0
74GM03_F34 4 66 22 45 -45 right 1 5.000000e-01 /Users/lab/Documents/magic_control_exp/stim/3_noeffect.mov 661 26-Sep-2017 12:01:49 -1.788026e+01 1.637999e+02 0 0
74GM03_F34 4 67 73 45 45 right 1 5.000000e-01 /Users/lab/Documents/magic_control_exp/stim/9_noeffect.mov 643 26-Sep-2017 12:01:52 -2.982651e+01 3.945534e+02 0 0
74GM03_F34 4 68 39 -45 45 left 1 5.000000e-01 /Users/lab/Documents/magic_control_exp/stim/5_noeffect.mov 747 26-Sep-2017 12:02:10 2.100084e+01 -4.729310e+02 0 1
74GM03_F34 4 69 64 -45 -45 left 1 5.000000e-01 /Users/lab/Documents/magic_control_exp/stim/8_noeffect.mov 679 26-Sep-2017 12:02:13 -2.382326e+02 -1.431167e+01 0 0
74GM03_F34 4 70 40 -45 -45 left 1 5.000000e-01 /Users/lab/Documents/magic_control_exp/stim/5_noeffect.mov 499 26-Sep-2017 12:02:16 -1.331572e+02 -2.408621e+02 0 0
74GM03_F34 4 71 21 45 45 right 1 5.000000e-01 /Users/lab/Documents/magic_control_exp/stim/3_noeffect.mov 527 26-Sep-2017 12:02:19 2.242276e+02 1.074994e+02 0 0
74GM03_F34 4 72 74 45 -45 right 1 5.000000e-01 /Users/lab/Documents/magic_control_exp/stim/9_noeffect.mov 664 26-Sep-2017 12:02:42 4.654988e+02 1.201840e+02 0 1
74GM03_F34 4 73 62 45 -45 right 1 5.000000e-01 /Users/lab/Documents/magic_control_exp/stim/8_noeffect.mov 577 26-Sep-2017 12:02:44 -9.594391e+01 4.315121e+02 0 0
74GM03_F34 4 74 10 45 -45 right 1 5.000000e-01 /Users/lab/Documents/magic_control_exp/stim/2_noeffect.mov 526 26-Sep-2017 12:02:47 1.921899e+02 -4.212693e+01 0 0
74GM03_F34 4 75 51 -45 45 left 1 5.000000e-01 /Users/lab/Documents/magic_control_exp/stim/7_noeffect.mov 627 26-Sep-2017 12:02:50 -3.211099e+02 2.534041e+02 0 0
74GM03_F34 4 76 48 -45 -45 left 1 5.000000e-01 /Users/lab/Documents/magic_control_exp/stim/6_noeffect.mov 1263 26-Sep-2017 12:03:06 4.785809e+02 -4.109175e+02 0 1
74GM03_F34 4 77 55 -45 45 left 1 5.000000e-01 /Users/lab/Documents/magic_control_exp/stim/7_noeffect.mov 693 26-Sep-2017 12:03:09 -4.980044e+02 4.546979e+02 0 0
74GM03_F34 4 78 5 45 45 right 1 5.000000e-01 /Users/lab/Documents/magic_control_exp/stim/1_noeffect.mov 661 26-Sep-2017 12:03:12 -8.349811e+01 1.058836e+02 0 0
74GM03_F34 4 79 52 -45 -45 left 1 5.000000e-01 /Users/lab/Documents/magic_control_exp/stim/7_noeffect.mov 677 26-Sep-2017 12:03:15 4.047087e+02 -3.289335e+02 0 0
74GM03_F34 4 80 16 -45 -45 left 1 5.000000e-01 /Users/lab/Documents/magic_control_exp/stim/2_noeffect.mov 710 26-Sep-2017 12:03:18 3.020024e+02 6.063583e+01 0 0
