subject_name subjectNumber iTrial unshuffled_trial targetOrientation flankersOrientation response correct onscreen_stim_duration magicShows rt date time_of_day deltaX deltaY surpriseClip isClipTrial
81el27_f33 563 1 70 45 -45 right 1 5.000000e-01 /Users/corrado/Dropbox/experiments/surprise_control_exp/stim/9_noeffect.mov 780 25-May-2018 14:41:40 -1.843156e+02 -4.272874e+02 0 1
81el27_f33 563 2 24 -45 -45 left 1 5.000000e-01 /Users/corrado/Dropbox/experiments/surprise_control_exp/stim/3_noeffect.mov 942 25-May-2018 14:41:43 4.734958e+01 -4.845615e+02 0 0
81el27_f33 563 3 40 -45 -45 left 1 5.000000e-01 /Users/corrado/Dropbox/experiments/surprise_control_exp/stim/5_noeffect.mov 726 25-May-2018 14:41:47 4.571150e+02 1.419301e+02 0 0
81el27_f33 563 4 27 -45 45 left 1 5.000000e-01 /Users/corrado/Dropbox/experiments/surprise_control_exp/stim/4_noeffect.mov 764 25-May-2018 14:42:05 -2.275203e+02 -2.409674e+02 0 1
81el27_f33 563 5 38 45 -45 right 1 5.000000e-01 /Users/corrado/Dropbox/experiments/surprise_control_exp/stim/5_noeffect.mov 496 25-May-2018 14:42:08 -2.280984e+02 2.243837e+02 0 0
81el27_f33 563 6 19 -45 45 left 1 5.000000e-01 /Users/corrado/Dropbox/experiments/surprise_control_exp/stim/2_noeffect.mov 567 25-May-2018 14:42:11 2.625038e+02 4.780724e+02 0 0
81el27_f33 563 7 73 45 45 right 1 5.000000e-01 /Users/corrado/Dropbox/experiments/surprise_control_exp/stim/9_noeffect.mov 469 25-May-2018 14:42:13 -1.545776e+02 -2.809185e+02 0 0
81el27_f33 563 8 66 45 -45 right 1 5.000000e-01 /Users/corrado/Dropbox/experiments/surprise_control_exp/stim/9_noeffect.mov 797 25-May-2018 14:42:37 1.707287e+02 -4.595639e+02 0 1
81el27_f33 563 9 80 -45 -45 left 1 5.000000e-01 /Users/corrado/Dropbox/experiments/surprise_control_exp/stim/9_noeffect.mov 726 25-May-2018 14:42:40 4.195036e+02 4.235903e+02 0 0
81el27_f33 563 10 74 45 -45 right 1 5.000000e-01 /Users/corrado/Dropbox/experiments/surprise_control_exp/stim/9_noeffect.mov 1043 25-May-2018 14:42:43 2.317683e+02 -1.518122e+01 0 0
81el27_f33 563 11 10 45 -45 right 1 5.000000e-01 /Users/corrado/Dropbox/experiments/surprise_control_exp/stim/2_noeffect.mov 677 25-May-2018 14:42:46 -4.561898e+02 4.487172e+02 0 0
81el27_f33 563 12 56 -45 -45 left 1 5.000000e-01 /Users/corrado/Dropbox/experiments/surprise_control_exp/stim/7_noeffect.mov 664 25-May-2018 14:43:06 2.030927e+02 2.246632e+02 0 1
81el27_f33 563 13 48 -45 -45 left 1 5.000000e-01 /Users/corrado/Dropbox/experiments/surprise_control_exp/stim/6_noeffect.mov 697 25-May-2018 14:43:09 3.058640e+02 1.629552e+02 0 0
81el27_f33 563 14 30 45 -45 right 1 5.000000e-01 /Users/corrado/Dropbox/experiments/surprise_control_exp/stim/4_noeffect.mov 581 25-May-2018 14:43:12 1.400918e+02 1.260126e+02 0 0
81el27_f33 563 15 34 45 -45 right 1 5.000000e-01 /Users/corrado/Dropbox/experiments/surprise_control_exp/stim/5_noeffect.mov 825 25-May-2018 14:43:15 -4.392753e+01 -4.440608e+02 0 0
81el27_f33 563 16 29 45 45 right 1 5.000000e-01 /Users/corrado/Dropbox/experiments/surprise_control_exp/stim/4_noeffect.mov 548 25-May-2018 14:43:33 8.602557e+01 4.755141e+02 0 1
81el27_f33 563 17 17 45 45 right 1 5.000000e-01 /Users/corrado/Dropbox/experiments/surprise_control_exp/stim/2_noeffect.mov 492 25-May-2018 14:43:36 -2.246781e+02 1.864973e+02 0 0
81el27_f33 563 18 4 -45 -45 left 1 5.000000e-01 /Users/corrado/Dropbox/experiments/surprise_control_exp/stim/1_noeffect.mov 559 25-May-2018 14:43:39 1.916362e+02 2.821318e+02 0 0
81el27_f33 563 19 15 -45 45 left 1 5.000000e-01 /Users/corrado/Dropbox/experiments/surprise_control_exp/stim/2_noeffect.mov 777 25-May-2018 14:43:42 -4.318427e+02 1.644118e+02 0 0
81el27_f33 563 20 47 -45 45 left 1 5.000000e-01 /Users/corrado/Dropbox/experiments/surprise_control_exp/stim/6_noeffect.mov 549 25-May-2018 14:43:58 2.450975e+02 -2.458918e+02 0 1
81el27_f33 563 21 61 45 45 right 1 5.000000e-01 /Users/corrado/Dropbox/experiments/surprise_control_exp/stim/8_noeffect.mov 525 25-May-2018 14:44:01 -8.534134e+01 -3.611296e+02 0 0
81el27_f33 563 22 20 -45 -45 left 1 5.000000e-01 /Users/corrado/Dropbox/experiments/surprise_control_exp/stim/2_noeffect.mov 1093 25-May-2018 14:44:04 4.899905e+02 -1.928855e+01 0 0
81el27_f33 563 23 13 45 45 right 1 5.000000e-01 /Users/corrado/Dropbox/experiments/surprise_control_exp/stim/2_noeffect.mov 558 25-May-2018 14:44:07 1.696779e+02 1.292909e+02 0 0
81el27_f33 563 24 41 45 45 right 1 5.000000e-01 /Users/corrado/Dropbox/experiments/surprise_control_exp/stim/6_noeffect.mov 547 25-May-2018 14:44:23 -3.923781e+02 -2.031628e+02 0 1
81el27_f33 563 25 52 -45 -45 left 1 5.000000e-01 /Users/corrado/Dropbox/experiments/surprise_control_exp/stim/7_noeffect.mov 486 25-May-2018 14:44:25 -2.570453e+02 8.925053e+01 0 0
81el27_f33 563 26 43 -45 45 left 1 5.000000e-01 /Users/corrado/Dropbox/experiments/surprise_control_exp/stim/6_noeffect.mov 709 25-May-2018 14:44:28 -4.329630e+02 1.119158e+02 0 0
81el27_f33 563 27 46 45 -45 right 1 5.000000e-01 /Users/corrado/Dropbox/experiments/surprise_control_exp/stim/6_noeffect.mov 558 25-May-2018 14:44:31 4.000285e+02 4.827321e+02 0 0
81el27_f33 563 28 7 -45 45 left 1 5.000000e-01 /Users/corrado/Dropbox/experiments/surprise_control_exp/stim/1_noeffect.mov 582 25-May-2018 14:44:58 7.615839e+01 4.544158e+02 0 1
81el27_f33 563 29 60 -45 -45 left 1 5.000000e-01 /Users/corrado/Dropbox/experiments/surprise_control_exp/stim/8_noeffect.mov 418 25-May-2018 14:45:00 3.314266e+02 -2.013038e+02 0 0
81el27_f33 563 30 9 45 45 right 1 5.000000e-01 /Users/corrado/Dropbox/experiments/surprise_control_exp/stim/2_noeffect.mov 583 25-May-2018 14:45:03 -1.070256e+02 -4.254568e+02 0 0
81el27_f33 563 31 21 45 45 right 1 5.000000e-01 /Users/corrado/Dropbox/experiments/surprise_control_exp/stim/3_noeffect.mov 642 25-May-2018 14:45:06 1.403225e+02 -3.153685e+02 0 0
81el27_f33 563 32 16 -45 -45 left 1 5.000000e-01 /Users/corrado/Dropbox/experiments/surprise_control_exp/stim/2_noeffect.mov 562 25-May-2018 14:45:32 2.229462e+01 2.776021e+02 0 1
81el27_f33 563 33 32 -45 -45 left 1 5.000000e-01 /Users/corrado/Dropbox/experiments/surprise_control_exp/stim/4_noeffect.mov 542 25-May-2018 14:45:35 2.831528e+02 1.073914e+02 0 0
81el27_f33 563 34 67 -45 45 left 1 5.000000e-01 /Users/corrado/Dropbox/experiments/surprise_control_exp/stim/9_noeffect.mov 382 25-May-2018 14:45:38 -1.778144e+02 -7.766685e+01 0 0
81el27_f33 563 35 33 45 45 right 1 5.000000e-01 /Users/corrado/Dropbox/experiments/surprise_control_exp/stim/5_noeffect.mov 566 25-May-2018 14:45:41 -1.275805e+02 2.558476e+02 0 0
81el27_f33 563 36 36 -45 -45 left 1 5.000000e-01 /Users/corrado/Dropbox/experiments/surprise_control_exp/stim/5_noeffect.mov 998 25-May-2018 14:45:59 -4.560848e+02 -5.383072e+00 0 1
81el27_f33 563 37 22 45 -45 right 1 5.000000e-01 /Users/corrado/Dropbox/experiments/surprise_control_exp/stim/3_noeffect.mov 493 25-May-2018 14:46:02 1.292204e+02 -4.061111e+02 0 0
81el27_f33 563 38 11 -45 45 left 1 5.000000e-01 /Users/corrado/Dropbox/experiments/surprise_control_exp/stim/2_noeffect.mov 625 25-May-2018 14:46:05 -4.545865e+02 -1.668529e+02 0 0
81el27_f33 563 39 39 -45 45 left 1 5.000000e-01 /Users/corrado/Dropbox/experiments/surprise_control_exp/stim/5_noeffect.mov 595 25-May-2018 14:46:08 -3.360987e+02 4.590167e+02 0 0
81el27_f33 563 40 77 45 45 right 1 5.000000e-01 /Users/corrado/Dropbox/experiments/surprise_control_exp/stim/9_noeffect.mov 613 25-May-2018 14:46:30 4.841189e+02 3.535194e+02 0 1
81el27_f33 563 41 58 45 -45 right 1 5.000000e-01 /Users/corrado/Dropbox/experiments/surprise_control_exp/stim/8_noeffect.mov 609 25-May-2018 14:46:33 2.169983e+02 3.211929e+02 0 0
81el27_f33 563 42 49 45 45 right 1 5.000000e-01 /Users/corrado/Dropbox/experiments/surprise_control_exp/stim/7_noeffect.mov 483 25-May-2018 14:46:36 -3.160084e+01 9.575033e+01 0 0
81el27_f33 563 43 63 -45 45 left 1 5.000000e-01 /Users/corrado/Dropbox/experiments/surprise_control_exp/stim/8_noeffect.mov 576 25-May-2018 14:46:39 -1.918253e+02 3.850626e+01 0 0
81el27_f33 563 44 50 45 -45 right 1 5.000000e-01 /Users/corrado/Dropbox/experiments/surprise_control_exp/stim/7_noeffect.mov 647 25-May-2018 14:46:59 1.855622e+02 3.921828e+01 0 1
81el27_f33 563 45 28 -45 -45 left 1 5.000000e-01 /Users/corrado/Dropbox/experiments/surprise_control_exp/stim/4_noeffect.mov 758 25-May-2018 14:47:02 2.388884e+02 -4.205842e+02 0 0
81el27_f33 563 46 75 -45 45 left 1 5.000000e-01 /Users/corrado/Dropbox/experiments/surprise_control_exp/stim/9_noeffect.mov 665 25-May-2018 14:47:05 -2.221200e+00 1.335909e+02 0 0
81el27_f33 563 47 25 45 45 right 1 5.000000e-01 /Users/corrado/Dropbox/experiments/surprise_control_exp/stim/4_noeffect.mov 1176 25-May-2018 14:47:09 -4.281729e+02 9.776295e+01 0 0
81el27_f33 563 48 35 -45 45 left 1 5.000000e-01 /Users/corrado/Dropbox/experiments/surprise_control_exp/stim/5_noeffect.mov 696 25-May-2018 14:47:26 4.950857e+02 -2.078540e+02 0 1
81el27_f33 563 49 26 45 -45 right 1 5.000000e-01 /Users/corrado/Dropbox/experiments/surprise_control_exp/stim/4_noeffect.mov 492 25-May-2018 14:47:29 -2.073315e+02 1.574809e+02 0 0
81el27_f33 563 50 12 -45 -45 left 1 5.000000e-01 /Users/corrado/Dropbox/experiments/surprise_control_exp/stim/2_noeffect.mov 693 25-May-2018 14:47:32 -2.110823e+02 7.760544e+01 0 0
81el27_f33 563 51 62 45 -45 right 1 5.000000e-01 /Users/corrado/Dropbox/experiments/surprise_control_exp/stim/8_noeffect.mov 548 25-May-2018 14:47:35 4.693411e+02 -4.034900e+02 0 0
81el27_f33 563 52 8 -45 -45 left 1 5.000000e-01 /Users/corrado/Dropbox/experiments/surprise_control_exp/stim/1_noeffect.mov 596 25-May-2018 14:48:02 4.719124e+02 4.790634e+02 0 1
81el27_f33 563 53 37 45 45 right 1 5.000000e-01 /Users/corrado/Dropbox/experiments/surprise_control_exp/stim/5_noeffect.mov 526 25-May-2018 14:48:04 -2.092661e+02 3.442199e+02 0 0
81el27_f33 563 54 6 45 -45 right 1 5.000000e-01 /Users/corrado/Dropbox/experiments/surprise_control_exp/stim/1_noeffect.mov 625 25-May-2018 14:48:07 -4.821952e+02 3.573041e+02 0 0
81el27_f33 563 55 14 45 -45 right 1 5.000000e-01 /Users/corrado/Dropbox/experiments/surprise_control_exp/stim/2_noeffect.mov 559 25-May-2018 14:48:10 -2.380792e+01 4.945917e+02 0 0
81el27_f33 563 56 1 45 45 right 1 5.000000e-01 /Users/corrado/Dropbox/experiments/surprise_control_exp/stim/1_noeffect.mov 681 25-May-2018 14:48:37 2.424927e+02 2.119763e+02 0 1
81el27_f33 563 57 31 -45 45 left 1 5.000000e-01 /Users/corrado/Dropbox/experiments/surprise_control_exp/stim/4_noeffect.mov 676 25-May-2018 14:48:40 -4.472488e+02 -3.641126e+02 0 0
81el27_f33 563 58 42 45 -45 right 1 5.000000e-01 /Users/corrado/Dropbox/experiments/surprise_control_exp/stim/6_noeffect.mov 733 25-May-2018 14:48:43 -1.333108e+02 1.346542e+02 0 0
81el27_f33 563 59 79 -45 45 left 1 5.000000e-01 /Users/corrado/Dropbox/experiments/surprise_control_exp/stim/9_noeffect.mov 682 25-May-2018 14:48:46 -1.893577e+02 -2.422705e+02 0 0
81el27_f33 563 60 51 -45 45 left 1 5.000000e-01 /Users/corrado/Dropbox/experiments/surprise_control_exp/stim/7_noeffect.mov 713 25-May-2018 14:49:06 -3.317942e+02 2.387919e+01 0 1
81el27_f33 563 61 3 -45 45 left 1 5.000000e-01 /Users/corrado/Dropbox/experiments/surprise_control_exp/stim/1_noeffect.mov 676 25-May-2018 14:49:09 2.157997e+02 1.297780e+02 0 0
81el27_f33 563 62 55 -45 45 left 1 5.000000e-01 /Users/corrado/Dropbox/experiments/surprise_control_exp/stim/7_noeffect.mov 526 25-May-2018 14:49:12 -3.790985e+02 -9.221611e+01 0 0
81el27_f33 563 63 23 -45 45 left 1 5.000000e-01 /Users/corrado/Dropbox/experiments/surprise_control_exp/stim/3_noeffect.mov 386 25-May-2018 14:49:15 -1.960477e+02 1.130291e+02 0 0
81el27_f33 563 64 57 45 45 right 1 5.000000e-01 /Users/corrado/Dropbox/experiments/surprise_control_exp/stim/8_noeffect.mov 561 25-May-2018 14:49:37 -1.817712e+02 3.416006e+02 0 1
81el27_f33 563 65 59 -45 45 left 1 5.000000e-01 /Users/corrado/Dropbox/experiments/surprise_control_exp/stim/8_noeffect.mov 525 25-May-2018 14:49:40 -2.236921e+02 -7.361066e+01 0 0
81el27_f33 563 66 2 45 -45 right 1 5.000000e-01 /Users/corrado/Dropbox/experiments/surprise_control_exp/stim/1_noeffect.mov 525 25-May-2018 14:49:43 6.335417e+01 -4.103955e+02 0 0
81el27_f33 563 67 72 -45 -45 left 1 5.000000e-01 /Users/corrado/Dropbox/experiments/surprise_control_exp/stim/9_noeffect.mov 665 25-May-2018 14:49:46 -4.660981e+01 2.110753e+02 0 0
81el27_f33 563 68 54 45 -45 right 1 5.000000e-01 /Users/corrado/Dropbox/experiments/surprise_control_exp/stim/7_noeffect.mov 630 25-May-2018 14:50:06 -1.514366e+02 3.402892e+01 0 1
81el27_f33 563 69 44 -45 -45 left 1 5.000000e-01 /Users/corrado/Dropbox/experiments/surprise_control_exp/stim/6_noeffect.mov 643 25-May-2018 14:50:09 3.302713e+02 -3.695149e+02 0 0
81el27_f33 563 70 64 -45 -45 left 1 5.000000e-01 /Users/corrado/Dropbox/experiments/surprise_control_exp/stim/8_noeffect.mov 575 25-May-2018 14:50:12 2.979118e+01 1.035831e+02 0 0
81el27_f33 563 71 5 45 45 right 1 5.000000e-01 /Users/corrado/Dropbox/experiments/surprise_control_exp/stim/1_noeffect.mov 430 25-May-2018 14:50:14 -3.523166e+02 -3.260843e+02 0 0
81el27_f33 563 72 65 45 45 right 1 5.000000e-01 /Users/corrado/Dropbox/experiments/surprise_control_exp/stim/9_noeffect.mov 646 25-May-2018 14:50:37 -3.749387e+02 3.243965e+02 0 1
81el27_f33 563 73 45 45 45 right 1 5.000000e-01 /Users/corrado/Dropbox/experiments/surprise_control_exp/stim/6_noeffect.mov 480 25-May-2018 14:50:40 1.263942e+01 -4.354215e+01 0 0
81el27_f33 563 74 78 45 -45 right 1 5.000000e-01 /Users/corrado/Dropbox/experiments/surprise_control_exp/stim/9_noeffect.mov 374 25-May-2018 14:50:43 2.131123e+02 4.951018e+01 0 0
81el27_f33 563 75 18 45 -45 right 1 5.000000e-01 /Users/corrado/Dropbox/experiments/surprise_control_exp/stim/2_noeffect.mov 542 25-May-2018 14:50:46 -4.190327e+02 -4.577246e+02 0 0
81el27_f33 563 76 69 45 45 right 1 5.000000e-01 /Users/corrado/Dropbox/experiments/surprise_control_exp/stim/9_noeffect.mov 529 25-May-2018 14:51:09 -2.353929e+02 -1.246146e+02 0 1
81el27_f33 563 77 76 -45 -45 left 1 5.000000e-01 /Users/corrado/Dropbox/experiments/surprise_control_exp/stim/9_noeffect.mov 575 25-May-2018 14:51:11 -1.590562e+02 3.261065e+02 0 0
81el27_f33 563 78 71 -45 45 left 1 5.000000e-01 /Users/corrado/Dropbox/experiments/surprise_control_exp/stim/9_noeffect.mov 610 25-May-2018 14:51:14 -7.247806e+01 -3.843411e+01 0 0
81el27_f33 563 79 53 45 45 right 1 5.000000e-01 /Users/corrado/Dropbox/experiments/surprise_control_exp/stim/7_noeffect.mov 559 25-May-2018 14:51:17 -3.901202e+01 2.366770e+02 0 0
81el27_f33 563 80 68 -45 -45 left 1 5.000000e-01 /Users/corrado/Dropbox/experiments/surprise_control_exp/stim/9_noeffect.mov 708 25-May-2018 14:51:20 3.070770e+02 1.352315e+02 0 0
