subject_name subjectNumber iTrial unshuffled_trial targetOrientation flankersOrientation response correct onscreen_stim_duration magicShows rt date time_of_day deltaX deltaY surpriseClip isClipTrial
60em05_f19 553 1 4 -45 -45 left 1 5.000000e-01 /Users/corrado/Dropbox/experiments/surprise_control_exp/stim/1_noeffect.mov 1781 22-May-2018 13:43:40 4.751549e+02 -3.697646e+01 0 1
60em05_f19 553 2 46 45 -45 right 1 5.000000e-01 /Users/corrado/Dropbox/experiments/surprise_control_exp/stim/6_noeffect.mov 1282 22-May-2018 13:43:44 -3.763267e+02 2.660006e+02 0 0
60em05_f19 553 3 44 -45 -45 left 1 5.000000e-01 /Users/corrado/Dropbox/experiments/surprise_control_exp/stim/6_noeffect.mov 749 22-May-2018 13:43:47 2.697481e+02 1.574192e+02 0 0
60em05_f19 553 4 23 -45 45 left 1 5.000000e-01 /Users/corrado/Dropbox/experiments/surprise_control_exp/stim/3_noeffect.mov 1782 22-May-2018 13:44:08 -3.288704e+02 -1.262709e+02 0 1
60em05_f19 553 5 71 -45 45 left 1 5.000000e-01 /Users/corrado/Dropbox/experiments/surprise_control_exp/stim/9_noeffect.mov 881 22-May-2018 13:44:11 3.644138e+02 2.149992e+02 0 0
60em05_f19 553 6 12 -45 -45 left 1 5.000000e-01 /Users/corrado/Dropbox/experiments/surprise_control_exp/stim/2_noeffect.mov 659 22-May-2018 13:44:14 -2.683187e+02 4.786629e+02 0 0
60em05_f19 553 7 59 -45 45 left 1 5.000000e-01 /Users/corrado/Dropbox/experiments/surprise_control_exp/stim/8_noeffect.mov 961 22-May-2018 13:44:17 -3.037984e+02 1.047322e+02 0 0
60em05_f19 553 8 73 45 45 right 1 5.000000e-01 /Users/corrado/Dropbox/experiments/surprise_control_exp/stim/9_noeffect.mov 1564 22-May-2018 13:44:41 -1.427600e+02 3.217513e+02 0 1
60em05_f19 553 9 1 45 45 right 1 5.000000e-01 /Users/corrado/Dropbox/experiments/surprise_control_exp/stim/1_noeffect.mov 782 22-May-2018 13:44:45 -2.358990e+02 4.805335e+02 0 0
60em05_f19 553 10 51 -45 45 left 1 5.000000e-01 /Users/corrado/Dropbox/experiments/surprise_control_exp/stim/7_noeffect.mov 644 22-May-2018 13:44:48 7.766518e+01 -1.319326e+01 0 0
60em05_f19 553 11 8 -45 -45 left 1 5.000000e-01 /Users/corrado/Dropbox/experiments/surprise_control_exp/stim/1_noeffect.mov 860 22-May-2018 13:44:51 4.194446e+02 2.934681e+02 0 0
60em05_f19 553 12 61 45 45 right 1 5.000000e-01 /Users/corrado/Dropbox/experiments/surprise_control_exp/stim/8_noeffect.mov 1513 22-May-2018 13:45:14 1.625072e+02 -1.273395e+02 0 1
60em05_f19 553 13 20 -45 -45 left 1 5.000000e-01 /Users/corrado/Dropbox/experiments/surprise_control_exp/stim/2_noeffect.mov 544 22-May-2018 13:45:17 2.679637e+02 4.462809e+02 0 0
60em05_f19 553 14 65 45 45 right 1 5.000000e-01 /Users/corrado/Dropbox/experiments/surprise_control_exp/stim/9_noeffect.mov 1710 22-May-2018 13:45:21 3.895537e+02 3.670547e+02 0 0
60em05_f19 553 15 29 45 45 right 1 5.000000e-01 /Users/corrado/Dropbox/experiments/surprise_control_exp/stim/4_noeffect.mov 811 22-May-2018 13:45:24 -3.878500e+02 1.077208e+02 0 0
60em05_f19 553 16 58 45 -45 right 1 5.000000e-01 /Users/corrado/Dropbox/experiments/surprise_control_exp/stim/8_noeffect.mov 898 22-May-2018 13:45:47 -4.659740e+02 3.262203e+02 0 1
60em05_f19 553 17 72 -45 -45 left 1 5.000000e-01 /Users/corrado/Dropbox/experiments/surprise_control_exp/stim/9_noeffect.mov 560 22-May-2018 13:45:50 1.663151e+02 2.576144e+01 0 0
60em05_f19 553 18 15 -45 45 left 1 5.000000e-01 /Users/corrado/Dropbox/experiments/surprise_control_exp/stim/2_noeffect.mov 785 22-May-2018 13:45:53 -4.057399e+02 4.146636e+02 0 0
60em05_f19 553 19 24 -45 -45 left 1 5.000000e-01 /Users/corrado/Dropbox/experiments/surprise_control_exp/stim/3_noeffect.mov 544 22-May-2018 13:45:56 6.740487e+01 4.363954e+02 0 0
60em05_f19 553 20 30 45 -45 right 1 5.000000e-01 /Users/corrado/Dropbox/experiments/surprise_control_exp/stim/4_noeffect.mov 929 22-May-2018 13:46:14 4.884137e+02 2.629093e+02 0 1
60em05_f19 553 21 39 -45 45 left 1 5.000000e-01 /Users/corrado/Dropbox/experiments/surprise_control_exp/stim/5_noeffect.mov 878 22-May-2018 13:46:17 -1.667611e+02 -9.992381e+01 0 0
60em05_f19 553 22 37 45 45 left 0 5.000000e-01 /Users/corrado/Dropbox/experiments/surprise_control_exp/stim/5_noeffect.mov 744 22-May-2018 13:46:21 -1.310025e+02 -2.788324e+02 0 0
60em05_f19 553 23 36 -45 -45 right 0 5.000000e-01 /Users/corrado/Dropbox/experiments/surprise_control_exp/stim/5_noeffect.mov 1893 22-May-2018 13:46:25 4.207144e+02 1.184220e+01 0 0
60em05_f19 553 24 57 45 45 right 1 5.000000e-01 /Users/corrado/Dropbox/experiments/surprise_control_exp/stim/8_noeffect.mov 815 22-May-2018 13:46:47 3.732300e+02 4.497096e+02 0 1
60em05_f19 553 25 78 45 -45 right 1 5.000000e-01 /Users/corrado/Dropbox/experiments/surprise_control_exp/stim/9_noeffect.mov 800 22-May-2018 13:46:50 2.366535e+02 -3.638624e+02 0 0
60em05_f19 553 26 3 -45 45 left 1 5.000000e-01 /Users/corrado/Dropbox/experiments/surprise_control_exp/stim/1_noeffect.mov 1093 22-May-2018 13:46:54 3.015957e+02 -4.137366e+02 0 0
60em05_f19 553 27 27 -45 45 left 1 5.000000e-01 /Users/corrado/Dropbox/experiments/surprise_control_exp/stim/4_noeffect.mov 770 22-May-2018 13:46:57 -4.518280e+01 2.863845e+02 0 0
60em05_f19 553 28 7 -45 45 left 1 5.000000e-01 /Users/corrado/Dropbox/experiments/surprise_control_exp/stim/1_noeffect.mov 1579 22-May-2018 13:47:24 2.846329e+02 -4.189690e+02 0 1
60em05_f19 553 29 69 45 45 right 1 5.000000e-01 /Users/corrado/Dropbox/experiments/surprise_control_exp/stim/9_noeffect.mov 576 22-May-2018 13:47:27 -2.879729e+02 3.064204e+00 0 0
60em05_f19 553 30 77 45 45 right 1 5.000000e-01 /Users/corrado/Dropbox/experiments/surprise_control_exp/stim/9_noeffect.mov 601 22-May-2018 13:47:30 -3.083837e+02 -3.658538e+02 0 0
60em05_f19 553 31 41 45 45 right 1 5.000000e-01 /Users/corrado/Dropbox/experiments/surprise_control_exp/stim/6_noeffect.mov 528 22-May-2018 13:47:33 -3.645173e+02 -4.141687e+02 0 0
60em05_f19 553 32 16 -45 -45 left 1 5.000000e-01 /Users/corrado/Dropbox/experiments/surprise_control_exp/stim/2_noeffect.mov 1113 22-May-2018 13:48:00 2.929035e+02 -1.660434e+02 0 1
60em05_f19 553 33 45 45 45 right 1 5.000000e-01 /Users/corrado/Dropbox/experiments/surprise_control_exp/stim/6_noeffect.mov 1019 22-May-2018 13:48:03 3.720843e+02 4.044670e+02 0 0
60em05_f19 553 34 22 45 -45 right 1 5.000000e-01 /Users/corrado/Dropbox/experiments/surprise_control_exp/stim/3_noeffect.mov 793 22-May-2018 13:48:07 3.417366e+02 3.538340e+02 0 0
60em05_f19 553 35 55 -45 45 left 1 5.000000e-01 /Users/corrado/Dropbox/experiments/surprise_control_exp/stim/7_noeffect.mov 710 22-May-2018 13:48:10 4.192206e+02 -8.127625e+01 0 0
60em05_f19 553 36 28 -45 -45 left 1 5.000000e-01 /Users/corrado/Dropbox/experiments/surprise_control_exp/stim/4_noeffect.mov 1046 22-May-2018 13:48:28 -4.674331e+02 -2.858371e+02 0 1
60em05_f19 553 37 5 45 45 right 1 5.000000e-01 /Users/corrado/Dropbox/experiments/surprise_control_exp/stim/1_noeffect.mov 1012 22-May-2018 13:48:32 -9.547140e+01 -2.178193e+02 0 0
60em05_f19 553 38 68 -45 -45 left 1 5.000000e-01 /Users/corrado/Dropbox/experiments/surprise_control_exp/stim/9_noeffect.mov 1226 22-May-2018 13:48:35 4.189768e+02 -3.960618e-01 0 0
60em05_f19 553 39 42 45 -45 right 1 5.000000e-01 /Users/corrado/Dropbox/experiments/surprise_control_exp/stim/6_noeffect.mov 594 22-May-2018 13:48:38 -1.009478e+02 -2.712946e+02 0 0
60em05_f19 553 40 67 -45 45 left 1 5.000000e-01 /Users/corrado/Dropbox/experiments/surprise_control_exp/stim/9_noeffect.mov 863 22-May-2018 13:49:01 1.128416e+02 -2.847417e+02 0 1
60em05_f19 553 41 6 45 -45 right 1 5.000000e-01 /Users/corrado/Dropbox/experiments/surprise_control_exp/stim/1_noeffect.mov 726 22-May-2018 13:49:05 -2.940788e+02 3.525000e+02 0 0
60em05_f19 553 42 56 -45 -45 left 1 5.000000e-01 /Users/corrado/Dropbox/experiments/surprise_control_exp/stim/7_noeffect.mov 876 22-May-2018 13:49:08 8.740996e+01 -4.405443e+02 0 0
60em05_f19 553 43 52 -45 -45 left 1 5.000000e-01 /Users/corrado/Dropbox/experiments/surprise_control_exp/stim/7_noeffect.mov 876 22-May-2018 13:49:11 3.986775e+02 -3.736462e+02 0 0
60em05_f19 553 44 31 -45 45 left 1 5.000000e-01 /Users/corrado/Dropbox/experiments/surprise_control_exp/stim/4_noeffect.mov 896 22-May-2018 13:49:29 7.848789e+01 -2.842993e+02 0 1
60em05_f19 553 45 19 -45 45 left 1 5.000000e-01 /Users/corrado/Dropbox/experiments/surprise_control_exp/stim/2_noeffect.mov 675 22-May-2018 13:49:33 -5.078969e+01 -1.902024e+02 0 0
60em05_f19 553 46 49 45 45 right 1 5.000000e-01 /Users/corrado/Dropbox/experiments/surprise_control_exp/stim/7_noeffect.mov 543 22-May-2018 13:49:35 -2.369071e+02 2.059132e+02 0 0
60em05_f19 553 47 62 45 -45 right 1 5.000000e-01 /Users/corrado/Dropbox/experiments/surprise_control_exp/stim/8_noeffect.mov 594 22-May-2018 13:49:38 -2.456946e+01 -4.978226e+02 0 0
60em05_f19 553 48 18 45 -45 right 1 5.000000e-01 /Users/corrado/Dropbox/experiments/surprise_control_exp/stim/2_noeffect.mov 730 22-May-2018 13:50:05 -1.142614e+01 -3.274098e+02 0 1
60em05_f19 553 49 25 45 45 right 1 5.000000e-01 /Users/corrado/Dropbox/experiments/surprise_control_exp/stim/4_noeffect.mov 448 22-May-2018 13:50:07 -6.334430e+01 -2.574667e+02 0 0
60em05_f19 553 50 64 -45 -45 left 1 5.000000e-01 /Users/corrado/Dropbox/experiments/surprise_control_exp/stim/8_noeffect.mov 1041 22-May-2018 13:50:11 7.424056e+01 4.744281e+02 0 0
60em05_f19 553 51 50 45 -45 right 1 5.000000e-01 /Users/corrado/Dropbox/experiments/surprise_control_exp/stim/7_noeffect.mov 403 22-May-2018 13:50:14 9.201961e+01 -4.620808e+01 0 0
60em05_f19 553 52 17 45 45 right 1 5.000000e-01 /Users/corrado/Dropbox/experiments/surprise_control_exp/stim/2_noeffect.mov 814 22-May-2018 13:50:40 -4.556665e+02 -2.684388e+02 0 1
60em05_f19 553 53 47 -45 45 left 1 5.000000e-01 /Users/corrado/Dropbox/experiments/surprise_control_exp/stim/6_noeffect.mov 611 22-May-2018 13:50:43 -2.869680e+02 -1.499381e+02 0 0
60em05_f19 553 54 74 45 -45 right 1 5.000000e-01 /Users/corrado/Dropbox/experiments/surprise_control_exp/stim/9_noeffect.mov 777 22-May-2018 13:50:46 -4.309667e+02 -4.465790e+02 0 0
60em05_f19 553 55 32 -45 -45 left 1 5.000000e-01 /Users/corrado/Dropbox/experiments/surprise_control_exp/stim/4_noeffect.mov 1043 22-May-2018 13:50:50 4.406790e+02 -3.025213e+02 0 0
60em05_f19 553 56 60 -45 -45 left 1 5.000000e-01 /Users/corrado/Dropbox/experiments/surprise_control_exp/stim/8_noeffect.mov 831 22-May-2018 13:51:12 3.650033e+02 -4.547731e+02 0 1
60em05_f19 553 57 79 -45 45 left 1 5.000000e-01 /Users/corrado/Dropbox/experiments/surprise_control_exp/stim/9_noeffect.mov 698 22-May-2018 13:51:15 2.860593e+02 3.358590e+02 0 0
60em05_f19 553 58 14 45 -45 right 1 5.000000e-01 /Users/corrado/Dropbox/experiments/surprise_control_exp/stim/2_noeffect.mov 745 22-May-2018 13:51:18 1.135518e+02 1.670209e+02 0 0
60em05_f19 553 59 76 -45 -45 left 1 5.000000e-01 /Users/corrado/Dropbox/experiments/surprise_control_exp/stim/9_noeffect.mov 726 22-May-2018 13:51:21 3.119779e+02 -4.944159e+02 0 0
60em05_f19 553 60 43 -45 45 left 1 5.000000e-01 /Users/corrado/Dropbox/experiments/surprise_control_exp/stim/6_noeffect.mov 832 22-May-2018 13:51:37 1.127261e+02 4.185459e+02 0 1
60em05_f19 553 61 2 45 -45 right 1 5.000000e-01 /Users/corrado/Dropbox/experiments/surprise_control_exp/stim/1_noeffect.mov 525 22-May-2018 13:51:40 1.406241e+02 1.663704e+02 0 0
60em05_f19 553 62 70 45 -45 right 1 5.000000e-01 /Users/corrado/Dropbox/experiments/surprise_control_exp/stim/9_noeffect.mov 577 22-May-2018 13:51:43 -2.277777e+02 2.479051e+02 0 0
60em05_f19 553 63 63 -45 45 left 1 5.000000e-01 /Users/corrado/Dropbox/experiments/surprise_control_exp/stim/8_noeffect.mov 660 22-May-2018 13:51:46 9.867796e+01 -4.929120e+02 0 0
60em05_f19 553 64 66 45 -45 right 1 5.000000e-01 /Users/corrado/Dropbox/experiments/surprise_control_exp/stim/9_noeffect.mov 995 22-May-2018 13:52:09 -3.036589e+02 -4.535691e+02 0 1
60em05_f19 553 65 53 45 45 right 1 5.000000e-01 /Users/corrado/Dropbox/experiments/surprise_control_exp/stim/7_noeffect.mov 510 22-May-2018 13:52:12 -2.003454e+02 2.795062e+02 0 0
60em05_f19 553 66 21 45 45 right 1 5.000000e-01 /Users/corrado/Dropbox/experiments/surprise_control_exp/stim/3_noeffect.mov 452 22-May-2018 13:52:15 -1.743898e+02 -4.846516e+01 0 0
60em05_f19 553 67 11 -45 45 left 1 5.000000e-01 /Users/corrado/Dropbox/experiments/surprise_control_exp/stim/2_noeffect.mov 660 22-May-2018 13:52:18 -9.318692e+01 1.968682e+02 0 0
60em05_f19 553 68 9 45 45 right 1 5.000000e-01 /Users/corrado/Dropbox/experiments/surprise_control_exp/stim/2_noeffect.mov 731 22-May-2018 13:52:44 -2.546607e+00 4.011230e+02 0 1
60em05_f19 553 69 54 45 -45 right 1 5.000000e-01 /Users/corrado/Dropbox/experiments/surprise_control_exp/stim/7_noeffect.mov 610 22-May-2018 13:52:47 -1.955789e+02 -2.051135e+02 0 0
60em05_f19 553 70 80 -45 -45 left 1 5.000000e-01 /Users/corrado/Dropbox/experiments/surprise_control_exp/stim/9_noeffect.mov 526 22-May-2018 13:52:50 -3.585515e+02 -2.027964e+02 0 0
60em05_f19 553 71 75 -45 45 left 1 5.000000e-01 /Users/corrado/Dropbox/experiments/surprise_control_exp/stim/9_noeffect.mov 860 22-May-2018 13:52:54 4.891235e+02 -4.438079e+02 0 0
60em05_f19 553 72 35 -45 45 left 1 5.000000e-01 /Users/corrado/Dropbox/experiments/surprise_control_exp/stim/5_noeffect.mov 913 22-May-2018 13:53:11 -1.260876e+02 8.620895e+00 0 1
60em05_f19 553 73 10 45 -45 right 1 5.000000e-01 /Users/corrado/Dropbox/experiments/surprise_control_exp/stim/2_noeffect.mov 692 22-May-2018 13:53:14 -2.211398e+02 -7.062556e+01 0 0
60em05_f19 553 74 26 45 -45 right 1 5.000000e-01 /Users/corrado/Dropbox/experiments/surprise_control_exp/stim/4_noeffect.mov 610 22-May-2018 13:53:17 3.991857e+02 -9.502181e+01 0 0
60em05_f19 553 75 38 45 -45 right 1 5.000000e-01 /Users/corrado/Dropbox/experiments/surprise_control_exp/stim/5_noeffect.mov 582 22-May-2018 13:53:20 -1.084803e+02 -3.681750e+02 0 0
60em05_f19 553 76 33 45 45 right 1 5.000000e-01 /Users/corrado/Dropbox/experiments/surprise_control_exp/stim/5_noeffect.mov 1680 22-May-2018 13:53:39 4.631321e+02 5.848121e+01 0 1
60em05_f19 553 77 48 -45 -45 left 1 5.000000e-01 /Users/corrado/Dropbox/experiments/surprise_control_exp/stim/6_noeffect.mov 760 22-May-2018 13:53:42 3.848112e+02 4.259902e+02 0 0
60em05_f19 553 78 13 45 45 right 1 5.000000e-01 /Users/corrado/Dropbox/experiments/surprise_control_exp/stim/2_noeffect.mov 575 22-May-2018 13:53:45 -1.736400e+02 -3.087062e+02 0 0
60em05_f19 553 79 34 45 -45 right 1 5.000000e-01 /Users/corrado/Dropbox/experiments/surprise_control_exp/stim/5_noeffect.mov 660 22-May-2018 13:53:48 -2.363156e+02 -4.975608e+02 0 0
60em05_f19 553 80 40 -45 -45 left 1 5.000000e-01 /Users/corrado/Dropbox/experiments/surprise_control_exp/stim/5_noeffect.mov 844 22-May-2018 13:53:51 -2.945750e+02 3.380856e+02 0 0
