subject_name subjectNumber iTrial unshuffled_trial targetOrientation flankersOrientation response correct onscreen_stim_duration magicShows rt date time_of_day deltaX deltaY surpriseClip isClipTrial
az_di_24_03_94_982_f 82 1 46 45 -45 left 0 5.000000e-01 /Users/lab/Documents/experiments/2019/surprise_5/stim/6_noeffect.mov 1391 16-Oct-2019 10:45:51 -2.444455e+02 4.158424e+02 0 1
az_di_24_03_94_982_f 82 2 72 -45 -45 left 1 5.000000e-01 /Users/lab/Documents/experiments/2019/surprise_5/stim/9_noeffect.mov 695 16-Oct-2019 10:45:54 -2.002135e+02 -2.263028e+02 0 0
az_di_24_03_94_982_f 82 3 54 45 -45 right 1 5.000000e-01 /Users/lab/Documents/experiments/2019/surprise_5/stim/7_noeffect.mov 758 16-Oct-2019 10:45:57 -3.109852e+02 -4.363350e+01 0 0
az_di_24_03_94_982_f 82 4 37 45 45 right 1 5.000000e-01 /Users/lab/Documents/experiments/2019/surprise_5/stim/5_noeffect.mov 792 16-Oct-2019 10:46:13 -3.759619e+01 2.538554e+02 0 1
az_di_24_03_94_982_f 82 5 24 -45 -45 left 1 5.000000e-01 /Users/lab/Documents/experiments/2019/surprise_5/stim/3_noeffect.mov 890 16-Oct-2019 10:46:17 2.316529e+02 4.210084e+02 0 0
az_di_24_03_94_982_f 82 6 76 -45 -45 left 1 5.000000e-01 /Users/lab/Documents/experiments/2019/surprise_5/stim/10_noeffect.mov 579 16-Oct-2019 10:46:20 9.122273e+01 -2.657800e+02 0 0
az_di_24_03_94_982_f 82 7 20 -45 -45 left 1 5.000000e-01 /Users/lab/Documents/experiments/2019/surprise_5/stim/2_noeffect.mov 729 16-Oct-2019 10:46:23 -3.849568e+02 -2.579282e+02 0 0
az_di_24_03_94_982_f 82 8 18 45 -45 right 1 5.000000e-01 /Users/lab/Documents/experiments/2019/surprise_5/stim/2_noeffect.mov 709 16-Oct-2019 10:46:47 -3.916914e+02 1.889289e+02 0 1
az_di_24_03_94_982_f 82 9 73 45 45 right 1 5.000000e-01 /Users/lab/Documents/experiments/2019/surprise_5/stim/10_noeffect.mov 579 16-Oct-2019 10:46:50 2.992947e+02 3.958341e+02 0 0
az_di_24_03_94_982_f 82 10 31 -45 45 left 1 5.000000e-01 /Users/lab/Documents/experiments/2019/surprise_5/stim/4_noeffect.mov 497 16-Oct-2019 10:46:53 -1.279789e+02 1.831809e+02 0 0
az_di_24_03_94_982_f 82 11 17 45 45 right 1 5.000000e-01 /Users/lab/Documents/experiments/2019/surprise_5/stim/2_noeffect.mov 745 16-Oct-2019 10:46:56 2.431952e+02 -2.252101e+01 0 0
az_di_24_03_94_982_f 82 12 45 45 45 right 1 5.000000e-01 /Users/lab/Documents/experiments/2019/surprise_5/stim/6_noeffect.mov 859 16-Oct-2019 10:47:11 4.852670e+02 1.849925e+02 0 1
az_di_24_03_94_982_f 82 13 15 -45 45 left 1 5.000000e-01 /Users/lab/Documents/experiments/2019/surprise_5/stim/2_noeffect.mov 608 16-Oct-2019 10:47:14 4.456766e+02 -4.577655e+02 0 0
az_di_24_03_94_982_f 82 14 61 45 45 left 0 5.000000e-01 /Users/lab/Documents/experiments/2019/surprise_5/stim/8_noeffect.mov 577 16-Oct-2019 10:47:17 -3.170610e+02 1.967227e+02 0 0
az_di_24_03_94_982_f 82 15 9 45 45 right 1 5.000000e-01 /Users/lab/Documents/experiments/2019/surprise_5/stim/2_noeffect.mov 629 16-Oct-2019 10:47:20 1.235150e+00 -3.821426e+02 0 0
az_di_24_03_94_982_f 82 16 25 45 45 right 1 5.000000e-01 /Users/lab/Documents/experiments/2019/surprise_5/stim/4_noeffect.mov 710 16-Oct-2019 10:47:37 3.518081e+02 9.520014e+01 0 1
az_di_24_03_94_982_f 82 17 23 -45 45 left 1 5.000000e-01 /Users/lab/Documents/experiments/2019/surprise_5/stim/3_noeffect.mov 573 16-Oct-2019 10:47:40 -1.322355e+02 4.072524e+01 0 0
az_di_24_03_94_982_f 82 18 41 45 45 left 0 5.000000e-01 /Users/lab/Documents/experiments/2019/surprise_5/stim/6_noeffect.mov 623 16-Oct-2019 10:47:43 4.261888e+02 -2.026724e+02 0 0
az_di_24_03_94_982_f 82 19 60 -45 -45 left 1 5.000000e-01 /Users/lab/Documents/experiments/2019/surprise_5/stim/8_noeffect.mov 828 16-Oct-2019 10:47:46 2.042255e+02 -9.238554e+01 0 0
az_di_24_03_94_982_f 82 20 28 -45 -45 left 1 5.000000e-01 /Users/lab/Documents/experiments/2019/surprise_5/stim/4_noeffect.mov 759 16-Oct-2019 10:48:03 4.284815e+02 2.578450e+02 0 1
az_di_24_03_94_982_f 82 21 4 -45 -45 left 1 5.000000e-01 /Users/lab/Documents/experiments/2019/surprise_5/stim/1_noeffect.mov 678 16-Oct-2019 10:48:06 3.779625e+02 3.557598e+02 0 0
az_di_24_03_94_982_f 82 22 66 45 -45 left 0 5.000000e-01 /Users/lab/Documents/experiments/2019/surprise_5/stim/9_noeffect.mov 794 16-Oct-2019 10:48:10 3.560849e+02 3.738845e+02 0 0
az_di_24_03_94_982_f 82 23 33 45 45 right 1 5.000000e-01 /Users/lab/Documents/experiments/2019/surprise_5/stim/5_noeffect.mov 606 16-Oct-2019 10:48:12 2.476623e+02 1.912841e+02 0 0
az_di_24_03_94_982_f 82 24 27 -45 45 left 1 5.000000e-01 /Users/lab/Documents/experiments/2019/surprise_5/stim/4_noeffect.mov 797 16-Oct-2019 10:48:30 4.333135e+02 4.766352e+02 0 1
az_di_24_03_94_982_f 82 25 79 -45 45 left 1 5.000000e-01 /Users/lab/Documents/experiments/2019/surprise_5/stim/10_noeffect.mov 608 16-Oct-2019 10:48:33 1.403505e+01 4.348507e+02 0 0
az_di_24_03_94_982_f 82 26 77 45 45 left 0 5.000000e-01 /Users/lab/Documents/experiments/2019/surprise_5/stim/10_noeffect.mov 646 16-Oct-2019 10:48:35 -4.817365e+02 4.034384e+02 0 0
az_di_24_03_94_982_f 82 27 50 45 -45 right 1 5.000000e-01 /Users/lab/Documents/experiments/2019/surprise_5/stim/7_noeffect.mov 657 16-Oct-2019 10:48:39 6.167879e+01 3.186977e+01 0 0
az_di_24_03_94_982_f 82 28 44 -45 -45 left 1 5.000000e-01 /Users/lab/Documents/experiments/2019/surprise_5/stim/6_noeffect.mov 791 16-Oct-2019 10:48:53 -2.087074e+02 1.771024e+02 0 1
az_di_24_03_94_982_f 82 29 55 -45 45 left 1 5.000000e-01 /Users/lab/Documents/experiments/2019/surprise_5/stim/7_noeffect.mov 846 16-Oct-2019 10:48:57 8.386916e+01 3.713411e+02 0 0
az_di_24_03_94_982_f 82 30 49 45 45 right 1 5.000000e-01 /Users/lab/Documents/experiments/2019/surprise_5/stim/7_noeffect.mov 638 16-Oct-2019 10:49:00 1.845648e+02 -3.390212e+02 0 0
az_di_24_03_94_982_f 82 31 12 -45 -45 left 1 5.000000e-01 /Users/lab/Documents/experiments/2019/surprise_5/stim/2_noeffect.mov 1092 16-Oct-2019 10:49:03 1.023568e+02 -6.980996e-01 0 0
az_di_24_03_94_982_f 82 32 13 45 45 right 1 5.000000e-01 /Users/lab/Documents/experiments/2019/surprise_5/stim/2_noeffect.mov 625 16-Oct-2019 10:49:28 2.267736e+02 1.221135e+02 0 1
az_di_24_03_94_982_f 82 33 34 45 -45 right 1 5.000000e-01 /Users/lab/Documents/experiments/2019/surprise_5/stim/5_noeffect.mov 597 16-Oct-2019 10:49:31 -2.843750e+01 4.935592e+02 0 0
az_di_24_03_94_982_f 82 34 53 45 45 right 1 5.000000e-01 /Users/lab/Documents/experiments/2019/surprise_5/stim/7_noeffect.mov 710 16-Oct-2019 10:49:34 1.438328e+02 -2.812482e+02 0 0
az_di_24_03_94_982_f 82 35 68 -45 -45 left 1 5.000000e-01 /Users/lab/Documents/experiments/2019/surprise_5/stim/9_noeffect.mov 863 16-Oct-2019 10:49:37 3.591227e+02 1.413405e+02 0 0
az_di_24_03_94_982_f 82 36 19 -45 45 left 1 5.000000e-01 /Users/lab/Documents/experiments/2019/surprise_5/stim/2_noeffect.mov 926 16-Oct-2019 10:50:02 -4.707687e+02 -2.347415e+01 0 1
az_di_24_03_94_982_f 82 37 75 -45 45 left 1 5.000000e-01 /Users/lab/Documents/experiments/2019/surprise_5/stim/10_noeffect.mov 678 16-Oct-2019 10:50:05 -4.798284e+02 2.997417e+02 0 0
az_di_24_03_94_982_f 82 38 48 -45 -45 left 1 5.000000e-01 /Users/lab/Documents/experiments/2019/surprise_5/stim/6_noeffect.mov 856 16-Oct-2019 10:50:08 -4.299138e+02 -1.067015e+02 0 0
az_di_24_03_94_982_f 82 39 1 45 45 right 1 5.000000e-01 /Users/lab/Documents/experiments/2019/surprise_5/stim/1_noeffect.mov 611 16-Oct-2019 10:50:11 -8.299019e+01 4.535039e+02 0 0
az_di_24_03_94_982_f 82 40 42 45 -45 right 1 5.000000e-01 /Users/lab/Documents/experiments/2019/surprise_5/stim/6_noeffect.mov 746 16-Oct-2019 10:50:26 4.955124e+02 -8.889026e+01 0 1
az_di_24_03_94_982_f 82 41 8 -45 -45 left 1 5.000000e-01 /Users/lab/Documents/experiments/2019/surprise_5/stim/1_noeffect.mov 727 16-Oct-2019 10:50:29 9.861882e+01 1.633756e+02 0 0
az_di_24_03_94_982_f 82 42 69 45 45 right 1 5.000000e-01 /Users/lab/Documents/experiments/2019/surprise_5/stim/9_noeffect.mov 724 16-Oct-2019 10:50:32 -4.284639e+02 2.621855e+02 0 0
az_di_24_03_94_982_f 82 43 2 45 -45 right 1 5.000000e-01 /Users/lab/Documents/experiments/2019/surprise_5/stim/1_noeffect.mov 526 16-Oct-2019 10:50:35 -2.487516e+02 3.185073e+02 0 0
az_di_24_03_94_982_f 82 44 70 45 -45 right 1 5.000000e-01 /Users/lab/Documents/experiments/2019/surprise_5/stim/9_noeffect.mov 709 16-Oct-2019 10:50:57 3.485836e+02 8.639021e+01 0 1
az_di_24_03_94_982_f 82 45 7 -45 45 left 1 5.000000e-01 /Users/lab/Documents/experiments/2019/surprise_5/stim/1_noeffect.mov 572 16-Oct-2019 10:51:00 -4.747988e+02 -2.791383e+02 0 0
az_di_24_03_94_982_f 82 46 59 -45 45 left 1 5.000000e-01 /Users/lab/Documents/experiments/2019/surprise_5/stim/8_noeffect.mov 629 16-Oct-2019 10:51:03 3.762707e+02 -2.875894e+02 0 0
az_di_24_03_94_982_f 82 47 32 -45 -45 left 1 5.000000e-01 /Users/lab/Documents/experiments/2019/surprise_5/stim/4_noeffect.mov 453 16-Oct-2019 10:51:06 -3.780786e+02 3.889485e+02 0 0
az_di_24_03_94_982_f 82 48 78 45 -45 right 1 5.000000e-01 /Users/lab/Documents/experiments/2019/surprise_5/stim/10_noeffect.mov 659 16-Oct-2019 10:51:20 4.273961e+02 -4.810930e+02 0 1
az_di_24_03_94_982_f 82 49 30 45 -45 right 1 5.000000e-01 /Users/lab/Documents/experiments/2019/surprise_5/stim/4_noeffect.mov 511 16-Oct-2019 10:51:23 -2.243623e+02 1.339592e+02 0 0
az_di_24_03_94_982_f 82 50 26 45 -45 right 1 5.000000e-01 /Users/lab/Documents/experiments/2019/surprise_5/stim/4_noeffect.mov 490 16-Oct-2019 10:51:26 -7.969332e+01 3.696149e+02 0 0
az_di_24_03_94_982_f 82 51 22 45 -45 right 1 5.000000e-01 /Users/lab/Documents/experiments/2019/surprise_5/stim/3_noeffect.mov 505 16-Oct-2019 10:51:29 -1.511147e+01 -4.414190e+02 0 0
az_di_24_03_94_982_f 82 52 14 45 -45 right 1 5.000000e-01 /Users/lab/Documents/experiments/2019/surprise_5/stim/2_noeffect.mov 731 16-Oct-2019 10:51:53 3.135405e+02 3.111470e+01 0 1
az_di_24_03_94_982_f 82 53 3 -45 45 left 1 5.000000e-01 /Users/lab/Documents/experiments/2019/surprise_5/stim/1_noeffect.mov 595 16-Oct-2019 10:51:56 -2.077479e+02 1.270373e+02 0 0
az_di_24_03_94_982_f 82 54 11 -45 45 left 1 5.000000e-01 /Users/lab/Documents/experiments/2019/surprise_5/stim/2_noeffect.mov 673 16-Oct-2019 10:51:59 -8.433019e+01 -3.833374e+02 0 0
az_di_24_03_94_982_f 82 55 16 -45 -45 left 1 5.000000e-01 /Users/lab/Documents/experiments/2019/surprise_5/stim/2_noeffect.mov 575 16-Oct-2019 10:52:02 3.106920e+01 4.981679e+02 0 0
az_di_24_03_94_982_f 82 56 6 45 -45 right 1 5.000000e-01 /Users/lab/Documents/experiments/2019/surprise_5/stim/1_noeffect.mov 745 16-Oct-2019 10:52:27 9.349590e+01 -2.383051e+02 0 1
az_di_24_03_94_982_f 82 57 56 -45 -45 left 1 5.000000e-01 /Users/lab/Documents/experiments/2019/surprise_5/stim/7_noeffect.mov 712 16-Oct-2019 10:52:30 -1.806228e+02 -3.019714e+02 0 0
az_di_24_03_94_982_f 82 58 80 -45 -45 left 1 5.000000e-01 /Users/lab/Documents/experiments/2019/surprise_5/stim/10_noeffect.mov 575 16-Oct-2019 10:52:33 9.809489e+01 2.151831e+01 0 0
az_di_24_03_94_982_f 82 59 57 45 45 left 0 5.000000e-01 /Users/lab/Documents/experiments/2019/surprise_5/stim/8_noeffect.mov 643 16-Oct-2019 10:52:36 -3.442003e+02 2.229502e+02 0 0
az_di_24_03_94_982_f 82 60 35 -45 45 left 1 5.000000e-01 /Users/lab/Documents/experiments/2019/surprise_5/stim/5_noeffect.mov 810 16-Oct-2019 10:52:53 -2.248467e+02 1.479988e+02 0 1
az_di_24_03_94_982_f 82 61 63 -45 45 left 1 5.000000e-01 /Users/lab/Documents/experiments/2019/surprise_5/stim/8_noeffect.mov 540 16-Oct-2019 10:52:56 -4.146460e+02 3.128855e+02 0 0
az_di_24_03_94_982_f 82 62 40 -45 -45 left 1 5.000000e-01 /Users/lab/Documents/experiments/2019/surprise_5/stim/5_noeffect.mov 662 16-Oct-2019 10:52:59 1.801292e+02 4.577594e+02 0 0
az_di_24_03_94_982_f 82 63 64 -45 -45 left 1 5.000000e-01 /Users/lab/Documents/experiments/2019/surprise_5/stim/8_noeffect.mov 645 16-Oct-2019 10:53:02 2.102446e+02 3.100608e+02 0 0
az_di_24_03_94_982_f 82 64 39 -45 45 left 1 5.000000e-01 /Users/lab/Documents/experiments/2019/surprise_5/stim/5_noeffect.mov 763 16-Oct-2019 10:53:18 -3.091987e+02 -1.858792e+02 0 1
az_di_24_03_94_982_f 82 65 47 -45 45 right 0 5.000000e-01 /Users/lab/Documents/experiments/2019/surprise_5/stim/6_noeffect.mov 0 16-Oct-2019 10:53:21 -3.167015e+02 -3.368735e+01 0 0
az_di_24_03_94_982_f 82 66 58 45 -45 right 1 5.000000e-01 /Users/lab/Documents/experiments/2019/surprise_5/stim/8_noeffect.mov 676 16-Oct-2019 10:53:24 2.986791e+02 7.524854e+01 0 0
az_di_24_03_94_982_f 82 67 36 -45 -45 left 1 5.000000e-01 /Users/lab/Documents/experiments/2019/surprise_5/stim/5_noeffect.mov 977 16-Oct-2019 10:53:27 -3.670600e+02 -2.491341e+02 0 0
az_di_24_03_94_982_f 82 68 29 45 45 right 1 5.000000e-01 /Users/lab/Documents/experiments/2019/surprise_5/stim/4_noeffect.mov 975 16-Oct-2019 10:53:44 2.843307e+02 -4.325361e+02 0 1
az_di_24_03_94_982_f 82 69 43 -45 45 left 1 5.000000e-01 /Users/lab/Documents/experiments/2019/surprise_5/stim/6_noeffect.mov 778 16-Oct-2019 10:53:48 4.406248e+01 -2.509411e+02 0 0
az_di_24_03_94_982_f 82 70 5 45 45 right 1 5.000000e-01 /Users/lab/Documents/experiments/2019/surprise_5/stim/1_noeffect.mov 814 16-Oct-2019 10:53:51 4.728816e+02 -4.460963e+02 0 0
az_di_24_03_94_982_f 82 71 62 45 -45 right 1 5.000000e-01 /Users/lab/Documents/experiments/2019/surprise_5/stim/8_noeffect.mov 638 16-Oct-2019 10:53:54 1.615590e+02 -8.438913e+01 0 0
az_di_24_03_94_982_f 82 72 52 -45 -45 left 1 5.000000e-01 /Users/lab/Documents/experiments/2019/surprise_5/stim/7_noeffect.mov 858 16-Oct-2019 10:54:13 3.212687e+02 -1.418838e+02 0 1
az_di_24_03_94_982_f 82 73 67 -45 45 left 1 5.000000e-01 /Users/lab/Documents/experiments/2019/surprise_5/stim/9_noeffect.mov 839 16-Oct-2019 10:54:16 -2.497184e+01 1.490928e+02 0 0
az_di_24_03_94_982_f 82 74 10 45 -45 right 1 5.000000e-01 /Users/lab/Documents/experiments/2019/surprise_5/stim/2_noeffect.mov 603 16-Oct-2019 10:54:19 4.882451e+02 -4.738363e+02 0 0
az_di_24_03_94_982_f 82 75 21 45 45 right 1 5.000000e-01 /Users/lab/Documents/experiments/2019/surprise_5/stim/3_noeffect.mov 563 16-Oct-2019 10:54:22 -3.982876e+02 3.903021e+02 0 0
az_di_24_03_94_982_f 82 76 65 45 45 right 1 5.000000e-01 /Users/lab/Documents/experiments/2019/surprise_5/stim/9_noeffect.mov 711 16-Oct-2019 10:54:44 1.527072e+02 -2.086297e+02 0 1
az_di_24_03_94_982_f 82 77 71 -45 45 left 1 5.000000e-01 /Users/lab/Documents/experiments/2019/surprise_5/stim/9_noeffect.mov 613 16-Oct-2019 10:54:47 -4.065486e+02 -2.975311e+02 0 0
az_di_24_03_94_982_f 82 78 74 45 -45 right 1 5.000000e-01 /Users/lab/Documents/experiments/2019/surprise_5/stim/10_noeffect.mov 542 16-Oct-2019 10:54:50 -1.136863e+01 -6.173724e+01 0 0
az_di_24_03_94_982_f 82 79 51 -45 45 left 1 5.000000e-01 /Users/lab/Documents/experiments/2019/surprise_5/stim/7_noeffect.mov 578 16-Oct-2019 10:54:53 8.570710e+01 -4.004171e+01 0 0
az_di_24_03_94_982_f 82 80 38 45 -45 right 1 5.000000e-01 /Users/lab/Documents/experiments/2019/surprise_5/stim/5_noeffect.mov 646 16-Oct-2019 10:54:56 2.186808e+02 7.427927e+01 0 0
