subject_name subjectNumber iTrial unshuffled_trial targetOrientation flankersOrientation response correct onscreen_stim_duration magicShows rt date time_of_day deltaX deltaY surpriseClip isClipTrial
66EP03_F26 1 1 64 -45 -45 right 0 5.000000e-01 /Users/lab/Documents/magic_control_exp/stim/8_noeffect.mov 585 25-Sep-2017 10:23:10 1.611150e+02 -5.513254e+01 0 1
66EP03_F26 1 2 76 -45 -45 right 0 5.000000e-01 /Users/lab/Documents/magic_control_exp/stim/9_noeffect.mov 977 25-Sep-2017 10:23:13 -3.839062e+02 3.184892e+02 0 0
66EP03_F26 1 3 38 45 -45 right 1 5.000000e-01 /Users/lab/Documents/magic_control_exp/stim/5_noeffect.mov 748 25-Sep-2017 10:23:17 -2.410228e+02 -1.393329e+02 0 0
66EP03_F26 1 4 60 -45 -45 left 1 5.000000e-01 /Users/lab/Documents/magic_control_exp/stim/8_noeffect.mov 648 25-Sep-2017 10:23:39 -1.455984e+02 4.926382e+02 0 1
66EP03_F26 1 5 10 45 -45 left 0 5.000000e-01 /Users/lab/Documents/magic_control_exp/stim/2_noeffect.mov 2067 25-Sep-2017 10:23:43 2.305677e+02 -2.191811e+02 0 0
66EP03_F26 1 6 50 45 -45 right 1 5.000000e-01 /Users/lab/Documents/magic_control_exp/stim/7_noeffect.mov 643 25-Sep-2017 10:23:46 1.611915e+02 4.931946e+02 0 0
66EP03_F26 1 7 4 -45 -45 right 0 5.000000e-01 /Users/lab/Documents/magic_control_exp/stim/1_noeffect.mov 677 25-Sep-2017 10:23:49 -1.944464e+02 4.769553e+02 0 0
66EP03_F26 1 8 24 -45 -45 left 1 5.000000e-01 /Users/lab/Documents/magic_control_exp/stim/3_noeffect.mov 1314 25-Sep-2017 10:24:09 -3.277288e+02 -2.960007e+02 0 1
66EP03_F26 1 9 35 -45 45 left 1 5.000000e-01 /Users/lab/Documents/magic_control_exp/stim/5_noeffect.mov 810 25-Sep-2017 10:24:13 -1.767863e+02 3.129375e+02 0 0
66EP03_F26 1 10 7 -45 45 right 0 5.000000e-01 /Users/lab/Documents/magic_control_exp/stim/1_noeffect.mov 660 25-Sep-2017 10:24:16 5.226635e-01 1.769318e+02 0 0
66EP03_F26 1 11 32 -45 -45 left 1 5.000000e-01 /Users/lab/Documents/magic_control_exp/stim/4_noeffect.mov 767 25-Sep-2017 10:24:19 -2.711451e+02 -4.490631e+02 0 0
66EP03_F26 1 12 54 45 -45 left 0 5.000000e-01 /Users/lab/Documents/magic_control_exp/stim/7_noeffect.mov 680 25-Sep-2017 10:24:39 1.679555e+02 -2.744870e+02 0 1
66EP03_F26 1 13 46 45 -45 right 1 5.000000e-01 /Users/lab/Documents/magic_control_exp/stim/6_noeffect.mov 778 25-Sep-2017 10:24:42 2.187565e+02 -3.928253e+02 0 0
66EP03_F26 1 14 9 45 45 right 1 5.000000e-01 /Users/lab/Documents/magic_control_exp/stim/2_noeffect.mov 577 25-Sep-2017 10:24:45 -1.193029e+02 1.432101e+02 0 0
66EP03_F26 1 15 66 45 -45 right 1 5.000000e-01 /Users/lab/Documents/magic_control_exp/stim/9_noeffect.mov 634 25-Sep-2017 10:24:48 -3.919184e+02 -1.486419e+01 0 0
66EP03_F26 1 16 59 -45 45 left 1 5.000000e-01 /Users/lab/Documents/magic_control_exp/stim/8_noeffect.mov 998 25-Sep-2017 10:25:11 -4.699072e+02 4.776576e+02 0 1
66EP03_F26 1 17 61 45 45 left 0 5.000000e-01 /Users/lab/Documents/magic_control_exp/stim/8_noeffect.mov 526 25-Sep-2017 10:25:14 2.590524e+02 1.523122e+02 0 0
66EP03_F26 1 18 44 -45 -45 left 1 5.000000e-01 /Users/lab/Documents/magic_control_exp/stim/6_noeffect.mov 660 25-Sep-2017 10:25:17 2.696523e+02 -2.220211e+02 0 0
66EP03_F26 1 19 13 45 45 right 1 5.000000e-01 /Users/lab/Documents/magic_control_exp/stim/2_noeffect.mov 828 25-Sep-2017 10:25:20 3.901257e+02 -2.179281e+02 0 0
66EP03_F26 1 20 55 -45 45 left 1 5.000000e-01 /Users/lab/Documents/magic_control_exp/stim/7_noeffect.mov 847 25-Sep-2017 10:25:40 -1.821851e+02 -1.906542e+02 0 1
66EP03_F26 1 21 14 45 -45 right 1 5.000000e-01 /Users/lab/Documents/magic_control_exp/stim/2_noeffect.mov 676 25-Sep-2017 10:25:43 -1.241397e+02 -1.626841e+01 0 0
66EP03_F26 1 22 28 -45 -45 left 1 5.000000e-01 /Users/lab/Documents/magic_control_exp/stim/4_noeffect.mov 827 25-Sep-2017 10:25:47 3.598323e+02 -4.207493e+02 0 0
66EP03_F26 1 23 72 -45 -45 right 0 5.000000e-01 /Users/lab/Documents/magic_control_exp/stim/9_noeffect.mov 911 25-Sep-2017 10:25:50 -3.213386e+02 4.449978e+02 0 0
66EP03_F26 1 24 21 45 45 left 0 5.000000e-01 /Users/lab/Documents/magic_control_exp/stim/3_noeffect.mov 880 25-Sep-2017 10:26:09 2.874456e+02 -3.958897e+02 0 1
66EP03_F26 1 25 57 45 45 right 1 5.000000e-01 /Users/lab/Documents/magic_control_exp/stim/8_noeffect.mov 1017 25-Sep-2017 10:26:13 3.006624e+02 8.603911e+01 0 0
66EP03_F26 1 26 30 45 -45 right 1 5.000000e-01 /Users/lab/Documents/magic_control_exp/stim/4_noeffect.mov 577 25-Sep-2017 10:26:16 -2.616239e+02 -3.969301e+01 0 0
66EP03_F26 1 27 75 -45 45 left 1 5.000000e-01 /Users/lab/Documents/magic_control_exp/stim/9_noeffect.mov 644 25-Sep-2017 10:26:19 -3.290340e+02 4.573959e+02 0 0
66EP03_F26 1 28 12 -45 -45 right 0 5.000000e-01 /Users/lab/Documents/magic_control_exp/stim/2_noeffect.mov 980 25-Sep-2017 10:26:46 -2.842657e+02 -4.946225e+02 0 1
66EP03_F26 1 29 47 -45 45 left 1 5.000000e-01 /Users/lab/Documents/magic_control_exp/stim/6_noeffect.mov 584 25-Sep-2017 10:26:49 1.975378e+02 1.487548e+02 0 0
66EP03_F26 1 30 3 -45 45 left 1 5.000000e-01 /Users/lab/Documents/magic_control_exp/stim/1_noeffect.mov 644 25-Sep-2017 10:26:52 -3.649544e+02 -4.726082e+01 0 0
66EP03_F26 1 31 27 -45 45 left 1 5.000000e-01 /Users/lab/Documents/magic_control_exp/stim/4_noeffect.mov 677 25-Sep-2017 10:26:55 3.455767e+02 -4.959233e+02 0 0
66EP03_F26 1 32 29 45 45 left 0 5.000000e-01 /Users/lab/Documents/magic_control_exp/stim/4_noeffect.mov 1696 25-Sep-2017 10:27:14 4.017946e+02 4.482610e+02 0 1
66EP03_F26 1 33 78 45 -45 right 1 5.000000e-01 /Users/lab/Documents/magic_control_exp/stim/9_noeffect.mov 934 25-Sep-2017 10:27:17 2.117984e+02 3.234852e+00 0 0
66EP03_F26 1 34 2 45 -45 right 1 5.000000e-01 /Users/lab/Documents/magic_control_exp/stim/1_noeffect.mov 735 25-Sep-2017 10:27:20 4.599468e+02 3.715380e+02 0 0
66EP03_F26 1 35 67 -45 45 left 1 5.000000e-01 /Users/lab/Documents/magic_control_exp/stim/9_noeffect.mov 676 25-Sep-2017 10:27:23 -1.428117e+02 3.784113e+02 0 0
66EP03_F26 1 36 39 -45 45 left 1 5.000000e-01 /Users/lab/Documents/magic_control_exp/stim/5_noeffect.mov 548 25-Sep-2017 10:27:41 -3.816017e+02 -3.158545e+02 0 1
66EP03_F26 1 37 68 -45 -45 right 0 5.000000e-01 /Users/lab/Documents/magic_control_exp/stim/9_noeffect.mov 644 25-Sep-2017 10:27:44 5.573222e+01 -3.590820e+02 0 0
66EP03_F26 1 38 6 45 -45 left 0 5.000000e-01 /Users/lab/Documents/magic_control_exp/stim/1_noeffect.mov 877 25-Sep-2017 10:27:47 1.885935e+02 -3.349364e+02 0 0
66EP03_F26 1 39 33 45 45 right 1 5.000000e-01 /Users/lab/Documents/magic_control_exp/stim/5_noeffect.mov 727 25-Sep-2017 10:27:50 -4.626691e+02 -2.094824e+02 0 0
66EP03_F26 1 40 8 -45 -45 left 1 5.000000e-01 /Users/lab/Documents/magic_control_exp/stim/1_noeffect.mov 680 25-Sep-2017 10:28:17 3.355449e+02 -9.961634e+01 0 1
66EP03_F26 1 41 31 -45 45 left 1 5.000000e-01 /Users/lab/Documents/magic_control_exp/stim/4_noeffect.mov 642 25-Sep-2017 10:28:20 -1.556735e+02 3.425657e+02 0 0
66EP03_F26 1 42 1 45 45 right 1 5.000000e-01 /Users/lab/Documents/magic_control_exp/stim/1_noeffect.mov 610 25-Sep-2017 10:28:23 -3.756837e+02 1.249850e+02 0 0
66EP03_F26 1 43 80 -45 -45 right 0 5.000000e-01 /Users/lab/Documents/magic_control_exp/stim/9_noeffect.mov 660 25-Sep-2017 10:28:26 -3.674484e+02 2.297240e+01 0 0
66EP03_F26 1 44 71 -45 45 left 1 5.000000e-01 /Users/lab/Documents/magic_control_exp/stim/9_noeffect.mov 582 25-Sep-2017 10:28:49 -2.106586e+01 -1.296370e+02 0 1
66EP03_F26 1 45 15 -45 45 left 1 5.000000e-01 /Users/lab/Documents/magic_control_exp/stim/2_noeffect.mov 762 25-Sep-2017 10:28:52 -4.388099e+02 2.576525e+02 0 0
66EP03_F26 1 46 45 45 45 right 1 5.000000e-01 /Users/lab/Documents/magic_control_exp/stim/6_noeffect.mov 995 25-Sep-2017 10:28:55 1.240933e+02 1.310995e+02 0 0
66EP03_F26 1 47 37 45 45 right 1 5.000000e-01 /Users/lab/Documents/magic_control_exp/stim/5_noeffect.mov 960 25-Sep-2017 10:28:59 8.257405e+01 1.617611e+02 0 0
66EP03_F26 1 48 20 -45 -45 left 1 5.000000e-01 /Users/lab/Documents/magic_control_exp/stim/2_noeffect.mov 632 25-Sep-2017 10:29:25 -1.204553e+02 -4.328612e+02 0 1
66EP03_F26 1 49 65 45 45 right 1 5.000000e-01 /Users/lab/Documents/magic_control_exp/stim/9_noeffect.mov 709 25-Sep-2017 10:29:28 -3.588903e+02 1.218887e+02 0 0
66EP03_F26 1 50 51 -45 45 left 1 5.000000e-01 /Users/lab/Documents/magic_control_exp/stim/7_noeffect.mov 544 25-Sep-2017 10:29:31 -3.668602e+02 -2.274962e+02 0 0
66EP03_F26 1 51 49 45 45 right 1 5.000000e-01 /Users/lab/Documents/magic_control_exp/stim/7_noeffect.mov 601 25-Sep-2017 10:29:34 3.449070e+01 4.681083e+01 0 0
66EP03_F26 1 52 23 -45 45 left 1 5.000000e-01 /Users/lab/Documents/magic_control_exp/stim/3_noeffect.mov 631 25-Sep-2017 10:29:54 1.005214e+02 8.369657e+01 0 1
66EP03_F26 1 53 41 45 45 right 1 5.000000e-01 /Users/lab/Documents/magic_control_exp/stim/6_noeffect.mov 578 25-Sep-2017 10:29:57 -1.223680e+02 -3.367219e+02 0 0
66EP03_F26 1 54 34 45 -45 right 1 5.000000e-01 /Users/lab/Documents/magic_control_exp/stim/5_noeffect.mov 577 25-Sep-2017 10:29:59 9.147603e+01 3.635115e+02 0 0
66EP03_F26 1 55 74 45 -45 right 1 5.000000e-01 /Users/lab/Documents/magic_control_exp/stim/9_noeffect.mov 550 25-Sep-2017 10:30:02 3.905508e+02 5.416548e+00 0 0
66EP03_F26 1 56 52 -45 -45 left 1 5.000000e-01 /Users/lab/Documents/magic_control_exp/stim/7_noeffect.mov 847 25-Sep-2017 10:30:23 9.975334e+01 -3.090408e+02 0 1
66EP03_F26 1 57 73 45 45 right 1 5.000000e-01 /Users/lab/Documents/magic_control_exp/stim/9_noeffect.mov 1093 25-Sep-2017 10:30:26 1.750078e+02 -1.889717e+02 0 0
66EP03_F26 1 58 36 -45 -45 right 0 5.000000e-01 /Users/lab/Documents/magic_control_exp/stim/5_noeffect.mov 593 25-Sep-2017 10:30:29 -2.624965e+01 9.075350e+01 0 0
66EP03_F26 1 59 5 45 45 left 0 5.000000e-01 /Users/lab/Documents/magic_control_exp/stim/1_noeffect.mov 610 25-Sep-2017 10:30:32 3.915555e+02 -7.960661e+01 0 0
66EP03_F26 1 60 69 45 45 right 1 5.000000e-01 /Users/lab/Documents/magic_control_exp/stim/9_noeffect.mov 697 25-Sep-2017 10:30:55 -1.867322e+02 3.955235e+01 0 1
66EP03_F26 1 61 40 -45 -45 left 1 5.000000e-01 /Users/lab/Documents/magic_control_exp/stim/5_noeffect.mov 711 25-Sep-2017 10:30:58 3.690220e+02 -1.626159e+02 0 0
66EP03_F26 1 62 58 45 -45 right 1 5.000000e-01 /Users/lab/Documents/magic_control_exp/stim/8_noeffect.mov 627 25-Sep-2017 10:31:01 1.797783e+02 2.772868e+02 0 0
66EP03_F26 1 63 48 -45 -45 right 0 5.000000e-01 /Users/lab/Documents/magic_control_exp/stim/6_noeffect.mov 593 25-Sep-2017 10:31:04 1.327659e+01 -3.022741e+02 0 0
66EP03_F26 1 64 70 45 -45 right 1 5.000000e-01 /Users/lab/Documents/magic_control_exp/stim/9_noeffect.mov 613 25-Sep-2017 10:31:27 -4.256206e+02 2.497707e+02 0 1
66EP03_F26 1 65 16 -45 -45 left 1 5.000000e-01 /Users/lab/Documents/magic_control_exp/stim/2_noeffect.mov 945 25-Sep-2017 10:31:31 -3.853666e+02 1.945027e+02 0 0
66EP03_F26 1 66 26 45 -45 right 1 5.000000e-01 /Users/lab/Documents/magic_control_exp/stim/4_noeffect.mov 527 25-Sep-2017 10:31:34 3.080217e+02 1.319431e+02 0 0
66EP03_F26 1 67 19 -45 45 left 1 5.000000e-01 /Users/lab/Documents/magic_control_exp/stim/2_noeffect.mov 628 25-Sep-2017 10:31:37 4.585991e+02 -6.586739e+01 0 0
66EP03_F26 1 68 11 -45 45 left 1 5.000000e-01 /Users/lab/Documents/magic_control_exp/stim/2_noeffect.mov 579 25-Sep-2017 10:32:03 4.635355e+02 -2.501322e+01 0 1
66EP03_F26 1 69 53 45 45 right 1 5.000000e-01 /Users/lab/Documents/magic_control_exp/stim/7_noeffect.mov 777 25-Sep-2017 10:32:06 -2.889389e+02 -1.952127e+01 0 0
66EP03_F26 1 70 63 -45 45 left 1 5.000000e-01 /Users/lab/Documents/magic_control_exp/stim/8_noeffect.mov 610 25-Sep-2017 10:32:09 4.721857e+02 1.943286e+02 0 0
66EP03_F26 1 71 43 -45 45 left 1 5.000000e-01 /Users/lab/Documents/magic_control_exp/stim/6_noeffect.mov 585 25-Sep-2017 10:32:12 3.326309e+02 -3.879213e+02 0 0
66EP03_F26 1 72 25 45 45 left 0 5.000000e-01 /Users/lab/Documents/magic_control_exp/stim/4_noeffect.mov 914 25-Sep-2017 10:32:30 -2.714396e+02 2.808643e+02 0 1
66EP03_F26 1 73 18 45 -45 right 1 5.000000e-01 /Users/lab/Documents/magic_control_exp/stim/2_noeffect.mov 693 25-Sep-2017 10:32:34 -2.279857e+02 -3.925025e+02 0 0
66EP03_F26 1 74 62 45 -45 right 1 5.000000e-01 /Users/lab/Documents/magic_control_exp/stim/8_noeffect.mov 644 25-Sep-2017 10:32:37 2.231777e+02 4.174119e+02 0 0
66EP03_F26 1 75 77 45 45 right 1 5.000000e-01 /Users/lab/Documents/magic_control_exp/stim/9_noeffect.mov 594 25-Sep-2017 10:32:40 2.441034e+02 1.519856e+02 0 0
66EP03_F26 1 76 22 45 -45 right 1 5.000000e-01 /Users/lab/Documents/magic_control_exp/stim/3_noeffect.mov 746 25-Sep-2017 10:32:59 3.637786e+02 1.278294e+02 0 1
66EP03_F26 1 77 79 -45 45 left 1 5.000000e-01 /Users/lab/Documents/magic_control_exp/stim/9_noeffect.mov 543 25-Sep-2017 10:33:02 1.622481e+02 -4.475361e+02 0 0
66EP03_F26 1 78 56 -45 -45 left 1 5.000000e-01 /Users/lab/Documents/magic_control_exp/stim/7_noeffect.mov 610 25-Sep-2017 10:33:05 -6.785753e+01 2.461173e+02 0 0
66EP03_F26 1 79 42 45 -45 right 1 5.000000e-01 /Users/lab/Documents/magic_control_exp/stim/6_noeffect.mov 817 25-Sep-2017 10:33:08 2.574472e+02 -2.472553e+02 0 0
66EP03_F26 1 80 17 45 45 right 1 5.000000e-01 /Users/lab/Documents/magic_control_exp/stim/2_noeffect.mov 927 25-Sep-2017 10:33:11 -2.259359e+02 -2.923651e+02 0 0
