subject_name subjectNumber iTrial unshuffled_trial targetOrientation flankersOrientation response correct onscreen_stim_duration magicShows rt date time_of_day deltaX deltaY surpriseClip isClipTrial
69iv18_m19 567 1 30 45 -45 left 0 5.000000e-01 /Users/corrado/Dropbox/experiments/surprise_control_exp/stim/4_noeffect.mov 730 23-May-2018 10:19:24 1.286665e+02 2.583660e+02 0 1
69iv18_m19 567 2 55 -45 45 right 0 5.000000e-01 /Users/corrado/Dropbox/experiments/surprise_control_exp/stim/7_noeffect.mov 466 23-May-2018 10:19:27 -4.507639e+02 5.492612e+01 0 0
69iv18_m19 567 3 36 -45 -45 right 0 5.000000e-01 /Users/corrado/Dropbox/experiments/surprise_control_exp/stim/5_noeffect.mov 492 23-May-2018 10:19:30 3.004877e+02 -4.621246e+02 0 0
69iv18_m19 567 4 80 -45 -45 right 0 5.000000e-01 /Users/corrado/Dropbox/experiments/surprise_control_exp/stim/9_noeffect.mov 711 23-May-2018 10:19:53 1.180149e+02 1.729016e+02 0 1
69iv18_m19 567 5 74 45 -45 left 0 5.000000e-01 /Users/corrado/Dropbox/experiments/surprise_control_exp/stim/9_noeffect.mov 451 23-May-2018 10:19:56 1.231431e+02 -9.930980e+01 0 0
69iv18_m19 567 6 46 45 -45 right 1 5.000000e-01 /Users/corrado/Dropbox/experiments/surprise_control_exp/stim/6_noeffect.mov 561 23-May-2018 10:19:59 -3.927911e+02 -2.160782e+02 0 0
69iv18_m19 567 7 33 45 45 left 0 5.000000e-01 /Users/corrado/Dropbox/experiments/surprise_control_exp/stim/5_noeffect.mov 431 23-May-2018 10:20:01 2.284419e+00 -1.002525e+01 0 0
69iv18_m19 567 8 78 45 -45 left 0 5.000000e-01 /Users/corrado/Dropbox/experiments/surprise_control_exp/stim/9_noeffect.mov 629 23-May-2018 10:20:24 -8.941956e+01 4.502195e+02 0 1
69iv18_m19 567 9 50 45 -45 left 0 5.000000e-01 /Users/corrado/Dropbox/experiments/surprise_control_exp/stim/7_noeffect.mov 493 23-May-2018 10:20:27 3.566521e+02 -8.628697e+01 0 0
69iv18_m19 567 10 58 45 -45 right 1 5.000000e-01 /Users/corrado/Dropbox/experiments/surprise_control_exp/stim/8_noeffect.mov 577 23-May-2018 10:20:30 -4.114592e+01 -3.135586e+02 0 0
69iv18_m19 567 11 59 -45 45 right 0 5.000000e-01 /Users/corrado/Dropbox/experiments/surprise_control_exp/stim/8_noeffect.mov 576 23-May-2018 10:20:33 -5.691461e+01 -4.837931e+02 0 0
69iv18_m19 567 12 41 45 45 left 0 5.000000e-01 /Users/corrado/Dropbox/experiments/surprise_control_exp/stim/6_noeffect.mov 579 23-May-2018 10:20:48 -2.299079e+02 1.409747e+02 0 1
69iv18_m19 567 13 37 45 45 right 1 5.000000e-01 /Users/corrado/Dropbox/experiments/surprise_control_exp/stim/5_noeffect.mov 659 23-May-2018 10:20:51 4.889054e+02 6.368203e+01 0 0
69iv18_m19 567 14 12 -45 -45 right 0 5.000000e-01 /Users/corrado/Dropbox/experiments/surprise_control_exp/stim/2_noeffect.mov 432 23-May-2018 10:20:54 -5.154979e+01 1.994659e+02 0 0
69iv18_m19 567 15 1 45 45 left 0 5.000000e-01 /Users/corrado/Dropbox/experiments/surprise_control_exp/stim/1_noeffect.mov 642 23-May-2018 10:20:57 -3.139585e+02 -1.229644e+02 0 0
69iv18_m19 567 16 35 -45 45 right 0 5.000000e-01 /Users/corrado/Dropbox/experiments/surprise_control_exp/stim/5_noeffect.mov 662 23-May-2018 10:21:15 -1.139808e+02 2.081461e+02 0 1
69iv18_m19 567 17 48 -45 -45 right 0 5.000000e-01 /Users/corrado/Dropbox/experiments/surprise_control_exp/stim/6_noeffect.mov 455 23-May-2018 10:21:17 -1.952076e+02 -4.623014e+02 0 0
69iv18_m19 567 18 67 -45 45 right 0 5.000000e-01 /Users/corrado/Dropbox/experiments/surprise_control_exp/stim/9_noeffect.mov 462 23-May-2018 10:21:20 -2.312974e+02 -3.340752e+02 0 0
69iv18_m19 567 19 20 -45 -45 right 0 5.000000e-01 /Users/corrado/Dropbox/experiments/surprise_control_exp/stim/2_noeffect.mov 444 23-May-2018 10:21:23 -1.912416e+02 3.042124e+02 0 0
69iv18_m19 567 20 43 -45 45 right 0 5.000000e-01 /Users/corrado/Dropbox/experiments/surprise_control_exp/stim/6_noeffect.mov 764 23-May-2018 10:21:39 -4.350905e+02 -4.809000e+02 0 1
69iv18_m19 567 21 22 45 -45 left 0 5.000000e-01 /Users/corrado/Dropbox/experiments/surprise_control_exp/stim/3_noeffect.mov 486 23-May-2018 10:21:42 6.363605e+01 4.935238e+02 0 0
69iv18_m19 567 22 18 45 -45 left 0 5.000000e-01 /Users/corrado/Dropbox/experiments/surprise_control_exp/stim/2_noeffect.mov 577 23-May-2018 10:21:45 2.849049e+02 3.658115e+02 0 0
69iv18_m19 567 23 75 -45 45 right 0 5.000000e-01 /Users/corrado/Dropbox/experiments/surprise_control_exp/stim/9_noeffect.mov 558 23-May-2018 10:21:47 -2.547356e+02 3.125369e+02 0 0
69iv18_m19 567 24 42 45 -45 left 0 5.000000e-01 /Users/corrado/Dropbox/experiments/surprise_control_exp/stim/6_noeffect.mov 436 23-May-2018 10:22:03 -2.929543e+02 2.362553e+01 0 1
69iv18_m19 567 25 7 -45 45 right 0 5.000000e-01 /Users/corrado/Dropbox/experiments/surprise_control_exp/stim/1_noeffect.mov 485 23-May-2018 10:22:06 -9.494810e+01 -1.800961e+02 0 0
69iv18_m19 567 26 3 -45 45 right 0 5.000000e-01 /Users/corrado/Dropbox/experiments/surprise_control_exp/stim/1_noeffect.mov 485 23-May-2018 10:22:08 -2.079793e+01 -1.059861e+02 0 0
69iv18_m19 567 27 17 45 45 left 0 5.000000e-01 /Users/corrado/Dropbox/experiments/surprise_control_exp/stim/2_noeffect.mov 626 23-May-2018 10:22:11 -3.138285e+02 -2.327418e+02 0 0
69iv18_m19 567 28 69 45 45 left 0 5.000000e-01 /Users/corrado/Dropbox/experiments/surprise_control_exp/stim/9_noeffect.mov 679 23-May-2018 10:22:34 2.713991e+02 -1.577451e+02 0 1
69iv18_m19 567 29 60 -45 -45 right 0 5.000000e-01 /Users/corrado/Dropbox/experiments/surprise_control_exp/stim/8_noeffect.mov 481 23-May-2018 10:22:37 7.555625e+01 -1.343175e+02 0 0
69iv18_m19 567 30 5 45 45 left 0 5.000000e-01 /Users/corrado/Dropbox/experiments/surprise_control_exp/stim/1_noeffect.mov 423 23-May-2018 10:22:40 1.125762e+01 -3.546104e+02 0 0
69iv18_m19 567 31 28 -45 -45 right 0 5.000000e-01 /Users/corrado/Dropbox/experiments/surprise_control_exp/stim/4_noeffect.mov 442 23-May-2018 10:22:43 -2.269450e+02 4.649731e+02 0 0
69iv18_m19 567 32 14 45 -45 left 0 5.000000e-01 /Users/corrado/Dropbox/experiments/surprise_control_exp/stim/2_noeffect.mov 561 23-May-2018 10:23:09 -2.983674e+02 3.310693e+02 0 1
69iv18_m19 567 33 44 -45 -45 right 0 5.000000e-01 /Users/corrado/Dropbox/experiments/surprise_control_exp/stim/6_noeffect.mov 350 23-May-2018 10:23:11 3.121852e+02 -2.518909e+02 0 0
69iv18_m19 567 34 77 45 45 right 1 5.000000e-01 /Users/corrado/Dropbox/experiments/surprise_control_exp/stim/9_noeffect.mov 592 23-May-2018 10:23:14 4.363650e+02 2.183756e+02 0 0
69iv18_m19 567 35 66 45 -45 left 0 5.000000e-01 /Users/corrado/Dropbox/experiments/surprise_control_exp/stim/9_noeffect.mov 436 23-May-2018 10:23:17 -2.872002e+02 3.726237e+01 0 0
69iv18_m19 567 36 64 -45 -45 right 0 5.000000e-01 /Users/corrado/Dropbox/experiments/surprise_control_exp/stim/8_noeffect.mov 579 23-May-2018 10:23:39 5.954055e+01 -3.761747e+02 0 1
69iv18_m19 567 37 31 -45 45 left 1 5.000000e-01 /Users/corrado/Dropbox/experiments/surprise_control_exp/stim/4_noeffect.mov 487 23-May-2018 10:23:42 1.759851e+02 4.526440e+02 0 0
69iv18_m19 567 38 25 45 45 left 0 5.000000e-01 /Users/corrado/Dropbox/experiments/surprise_control_exp/stim/4_noeffect.mov 466 23-May-2018 10:23:45 2.943800e+01 -6.216108e+01 0 0
69iv18_m19 567 39 23 -45 45 right 0 5.000000e-01 /Users/corrado/Dropbox/experiments/surprise_control_exp/stim/3_noeffect.mov 508 23-May-2018 10:23:48 -2.936390e+02 3.931639e+02 0 0
69iv18_m19 567 40 47 -45 45 right 0 5.000000e-01 /Users/corrado/Dropbox/experiments/surprise_control_exp/stim/6_noeffect.mov 679 23-May-2018 10:24:03 3.928867e+02 -1.360605e+02 0 1
69iv18_m19 567 41 10 45 -45 left 0 5.000000e-01 /Users/corrado/Dropbox/experiments/surprise_control_exp/stim/2_noeffect.mov 576 23-May-2018 10:24:06 1.221331e+02 4.781578e+02 0 0
69iv18_m19 567 42 6 45 -45 left 0 5.000000e-01 /Users/corrado/Dropbox/experiments/surprise_control_exp/stim/1_noeffect.mov 542 23-May-2018 10:24:09 -1.560986e+02 -3.064086e+02 0 0
69iv18_m19 567 43 19 -45 45 right 0 5.000000e-01 /Users/corrado/Dropbox/experiments/surprise_control_exp/stim/2_noeffect.mov 593 23-May-2018 10:24:12 -2.865000e+02 -2.325794e+02 0 0
69iv18_m19 567 44 26 45 -45 left 0 5.000000e-01 /Users/corrado/Dropbox/experiments/surprise_control_exp/stim/4_noeffect.mov 563 23-May-2018 10:24:30 -2.120266e+02 -3.012519e+02 0 1
69iv18_m19 567 45 40 -45 -45 right 0 5.000000e-01 /Users/corrado/Dropbox/experiments/surprise_control_exp/stim/5_noeffect.mov 389 23-May-2018 10:24:33 -3.491045e+02 2.471161e+02 0 0
69iv18_m19 567 46 39 -45 45 right 0 5.000000e-01 /Users/corrado/Dropbox/experiments/surprise_control_exp/stim/5_noeffect.mov 693 23-May-2018 10:24:36 3.522461e+02 8.539972e+01 0 0
69iv18_m19 567 47 13 45 45 left 0 5.000000e-01 /Users/corrado/Dropbox/experiments/surprise_control_exp/stim/2_noeffect.mov 426 23-May-2018 10:24:38 3.404320e+02 1.991040e+02 0 0
69iv18_m19 567 48 71 -45 45 left 1 5.000000e-01 /Users/corrado/Dropbox/experiments/surprise_control_exp/stim/9_noeffect.mov 561 23-May-2018 10:25:01 8.122213e+00 -4.604860e+02 0 1
69iv18_m19 567 49 57 45 45 left 0 5.000000e-01 /Users/corrado/Dropbox/experiments/surprise_control_exp/stim/8_noeffect.mov 558 23-May-2018 10:25:04 4.350581e+02 -1.570028e+02 0 0
69iv18_m19 567 50 15 -45 45 right 0 5.000000e-01 /Users/corrado/Dropbox/experiments/surprise_control_exp/stim/2_noeffect.mov 508 23-May-2018 10:25:07 -3.083553e+02 4.168439e+02 0 0
69iv18_m19 567 51 8 -45 -45 right 0 5.000000e-01 /Users/corrado/Dropbox/experiments/surprise_control_exp/stim/1_noeffect.mov 419 23-May-2018 10:25:10 -1.164327e+02 -3.984129e+02 0 0
69iv18_m19 567 52 68 -45 -45 right 0 5.000000e-01 /Users/corrado/Dropbox/experiments/surprise_control_exp/stim/9_noeffect.mov 645 23-May-2018 10:25:33 -2.760749e+02 3.304402e+02 0 1
69iv18_m19 567 53 24 -45 -45 right 0 5.000000e-01 /Users/corrado/Dropbox/experiments/surprise_control_exp/stim/3_noeffect.mov 745 23-May-2018 10:25:36 4.235797e+02 -1.786625e+02 0 0
69iv18_m19 567 54 76 -45 -45 right 0 5.000000e-01 /Users/corrado/Dropbox/experiments/surprise_control_exp/stim/9_noeffect.mov 421 23-May-2018 10:25:39 -1.246505e+01 -2.667138e+02 0 0
69iv18_m19 567 55 9 45 45 left 0 5.000000e-01 /Users/corrado/Dropbox/experiments/surprise_control_exp/stim/2_noeffect.mov 439 23-May-2018 10:25:41 1.495548e+02 1.133864e+02 0 0
69iv18_m19 567 56 2 45 -45 left 0 5.000000e-01 /Users/corrado/Dropbox/experiments/surprise_control_exp/stim/1_noeffect.mov 731 23-May-2018 10:26:08 -4.992216e+02 -2.376656e+02 0 1
69iv18_m19 567 57 49 45 45 left 0 5.000000e-01 /Users/corrado/Dropbox/experiments/surprise_control_exp/stim/7_noeffect.mov 683 23-May-2018 10:26:11 -3.575445e+02 6.826737e+01 0 0
69iv18_m19 567 58 21 45 45 left 0 5.000000e-01 /Users/corrado/Dropbox/experiments/surprise_control_exp/stim/3_noeffect.mov 485 23-May-2018 10:26:14 -4.608743e+02 4.449478e+02 0 0
69iv18_m19 567 59 27 -45 45 right 0 5.000000e-01 /Users/corrado/Dropbox/experiments/surprise_control_exp/stim/4_noeffect.mov 470 23-May-2018 10:26:16 -3.485272e+02 1.016517e+02 0 0
69iv18_m19 567 60 63 -45 45 right 0 5.000000e-01 /Users/corrado/Dropbox/experiments/surprise_control_exp/stim/8_noeffect.mov 596 23-May-2018 10:26:39 -1.062086e+02 1.511203e+02 0 1
69iv18_m19 567 61 16 -45 -45 right 0 5.000000e-01 /Users/corrado/Dropbox/experiments/surprise_control_exp/stim/2_noeffect.mov 560 23-May-2018 10:26:41 3.526881e+02 -4.611796e+02 0 0
69iv18_m19 567 62 61 45 45 left 0 5.000000e-01 /Users/corrado/Dropbox/experiments/surprise_control_exp/stim/8_noeffect.mov 425 23-May-2018 10:26:44 9.475664e+01 2.871666e+02 0 0
69iv18_m19 567 63 32 -45 -45 right 0 5.000000e-01 /Users/corrado/Dropbox/experiments/surprise_control_exp/stim/4_noeffect.mov 377 23-May-2018 10:26:47 2.292196e+02 2.145847e+02 0 0
69iv18_m19 567 64 73 45 45 left 0 5.000000e-01 /Users/corrado/Dropbox/experiments/surprise_control_exp/stim/9_noeffect.mov 563 23-May-2018 10:27:10 1.611328e+00 -3.596315e+02 0 1
69iv18_m19 567 65 53 45 45 left 0 5.000000e-01 /Users/corrado/Dropbox/experiments/surprise_control_exp/stim/7_noeffect.mov 402 23-May-2018 10:27:13 -4.767999e+02 1.384140e+01 0 0
69iv18_m19 567 66 4 -45 -45 right 0 5.000000e-01 /Users/corrado/Dropbox/experiments/surprise_control_exp/stim/1_noeffect.mov 468 23-May-2018 10:27:15 3.954176e+02 4.393223e+02 0 0
69iv18_m19 567 67 62 45 -45 left 0 5.000000e-01 /Users/corrado/Dropbox/experiments/surprise_control_exp/stim/8_noeffect.mov 443 23-May-2018 10:27:18 -1.579144e+02 9.655897e+01 0 0
69iv18_m19 567 68 11 -45 45 right 0 5.000000e-01 /Users/corrado/Dropbox/experiments/surprise_control_exp/stim/2_noeffect.mov 612 23-May-2018 10:27:44 2.328735e+02 -4.857784e+02 0 1
69iv18_m19 567 69 38 45 -45 left 0 5.000000e-01 /Users/corrado/Dropbox/experiments/surprise_control_exp/stim/5_noeffect.mov 415 23-May-2018 10:27:47 2.309212e+02 2.435288e+02 0 0
69iv18_m19 567 70 29 45 45 left 0 5.000000e-01 /Users/corrado/Dropbox/experiments/surprise_control_exp/stim/4_noeffect.mov 508 23-May-2018 10:27:50 -3.526527e+02 -4.785843e+02 0 0
69iv18_m19 567 71 65 45 45 left 0 5.000000e-01 /Users/corrado/Dropbox/experiments/surprise_control_exp/stim/9_noeffect.mov 377 23-May-2018 10:27:52 -3.504373e+02 -1.816764e+02 0 0
69iv18_m19 567 72 72 -45 -45 right 0 5.000000e-01 /Users/corrado/Dropbox/experiments/surprise_control_exp/stim/9_noeffect.mov 646 23-May-2018 10:28:15 -4.524447e+02 3.127055e+02 0 1
69iv18_m19 567 73 45 45 45 left 0 5.000000e-01 /Users/corrado/Dropbox/experiments/surprise_control_exp/stim/6_noeffect.mov 412 23-May-2018 10:28:18 4.993568e+01 -2.071498e+02 0 0
69iv18_m19 567 74 56 -45 -45 right 0 5.000000e-01 /Users/corrado/Dropbox/experiments/surprise_control_exp/stim/7_noeffect.mov 414 23-May-2018 10:28:21 -3.791106e+02 -2.667397e+02 0 0
69iv18_m19 567 75 70 45 -45 left 0 5.000000e-01 /Users/corrado/Dropbox/experiments/surprise_control_exp/stim/9_noeffect.mov 446 23-May-2018 10:28:24 4.646459e+02 3.395606e+02 0 0
69iv18_m19 567 76 51 -45 45 right 0 5.000000e-01 /Users/corrado/Dropbox/experiments/surprise_control_exp/stim/7_noeffect.mov 663 23-May-2018 10:28:44 -5.321842e+01 -1.268288e+02 0 1
69iv18_m19 567 77 54 45 -45 left 0 5.000000e-01 /Users/corrado/Dropbox/experiments/surprise_control_exp/stim/7_noeffect.mov 366 23-May-2018 10:28:46 1.133981e+01 5.565707e+01 0 0
69iv18_m19 567 78 79 -45 45 right 0 5.000000e-01 /Users/corrado/Dropbox/experiments/surprise_control_exp/stim/9_noeffect.mov 408 23-May-2018 10:28:49 1.390622e+01 4.657712e+02 0 0
69iv18_m19 567 79 52 -45 -45 right 0 5.000000e-01 /Users/corrado/Dropbox/experiments/surprise_control_exp/stim/7_noeffect.mov 726 23-May-2018 10:28:52 -4.778532e+02 1.392614e+02 0 0
69iv18_m19 567 80 34 45 -45 left 0 5.000000e-01 /Users/corrado/Dropbox/experiments/surprise_control_exp/stim/5_noeffect.mov 515 23-May-2018 10:28:55 -1.177137e+02 1.695522e+02 0 0
