subject_name subjectNumber iTrial unshuffled_trial targetOrientation flankersOrientation response correct onscreen_stim_duration magicShows rt date time_of_day deltaX deltaY surpriseClip isClipTrial
16dp26_f21 588 1 10 45 -45 right 1 5.000000e-01 /Users/corrado/Dropbox/experiments/surprise_control_exp/stim/2_noeffect.mov 730 25-May-2018 11:39:30 -1.109418e+02 -3.685745e+02 0 1
16dp26_f21 588 2 52 -45 -45 left 1 5.000000e-01 /Users/corrado/Dropbox/experiments/surprise_control_exp/stim/7_noeffect.mov 459 25-May-2018 11:39:33 2.259473e+02 -1.887760e+02 0 0
16dp26_f21 588 3 50 45 -45 right 1 5.000000e-01 /Users/corrado/Dropbox/experiments/surprise_control_exp/stim/7_noeffect.mov 609 25-May-2018 11:39:36 -3.952782e+02 -1.522027e+02 0 0
16dp26_f21 588 4 60 -45 -45 left 1 5.000000e-01 /Users/corrado/Dropbox/experiments/surprise_control_exp/stim/8_noeffect.mov 812 25-May-2018 11:39:58 -4.367379e+02 -4.639676e+02 0 1
16dp26_f21 588 5 64 -45 -45 left 1 5.000000e-01 /Users/corrado/Dropbox/experiments/surprise_control_exp/stim/8_noeffect.mov 490 25-May-2018 11:40:01 2.268824e+00 -4.207266e+02 0 0
16dp26_f21 588 6 27 -45 45 left 1 5.000000e-01 /Users/corrado/Dropbox/experiments/surprise_control_exp/stim/4_noeffect.mov 441 25-May-2018 11:40:04 1.384405e+02 3.919942e+01 0 0
16dp26_f21 588 7 8 -45 -45 left 1 5.000000e-01 /Users/corrado/Dropbox/experiments/surprise_control_exp/stim/1_noeffect.mov 361 25-May-2018 11:40:07 4.118062e+01 -1.742771e+01 0 0
16dp26_f21 588 8 44 -45 -45 left 1 5.000000e-01 /Users/corrado/Dropbox/experiments/surprise_control_exp/stim/6_noeffect.mov 629 25-May-2018 11:40:22 -4.671072e+02 1.840589e+01 0 1
16dp26_f21 588 9 41 45 45 right 1 5.000000e-01 /Users/corrado/Dropbox/experiments/surprise_control_exp/stim/6_noeffect.mov 678 25-May-2018 11:40:25 -2.167423e+02 -2.582276e+02 0 0
16dp26_f21 588 10 1 45 45 right 1 5.000000e-01 /Users/corrado/Dropbox/experiments/surprise_control_exp/stim/1_noeffect.mov 459 25-May-2018 11:40:28 2.599312e+02 -3.314901e+02 0 0
16dp26_f21 588 11 75 -45 45 left 1 5.000000e-01 /Users/corrado/Dropbox/experiments/surprise_control_exp/stim/9_noeffect.mov 643 25-May-2018 11:40:31 1.031176e+02 3.593409e+02 0 0
16dp26_f21 588 12 31 -45 45 left 1 5.000000e-01 /Users/corrado/Dropbox/experiments/surprise_control_exp/stim/4_noeffect.mov 613 25-May-2018 11:40:49 1.777619e+01 -4.909445e+02 0 1
16dp26_f21 588 13 26 45 -45 right 1 5.000000e-01 /Users/corrado/Dropbox/experiments/surprise_control_exp/stim/4_noeffect.mov 727 25-May-2018 11:40:52 3.656801e+02 4.601721e+02 0 0
16dp26_f21 588 14 13 45 45 right 1 5.000000e-01 /Users/corrado/Dropbox/experiments/surprise_control_exp/stim/2_noeffect.mov 527 25-May-2018 11:40:55 -2.352338e+02 -7.034326e+01 0 0
16dp26_f21 588 15 62 45 -45 right 1 5.000000e-01 /Users/corrado/Dropbox/experiments/surprise_control_exp/stim/8_noeffect.mov 593 25-May-2018 11:40:58 -3.687045e+02 4.797275e+02 0 0
16dp26_f21 588 16 28 -45 -45 left 1 5.000000e-01 /Users/corrado/Dropbox/experiments/surprise_control_exp/stim/4_noeffect.mov 613 25-May-2018 11:41:16 1.638486e+02 -4.211630e+02 0 1
16dp26_f21 588 17 72 -45 -45 left 1 5.000000e-01 /Users/corrado/Dropbox/experiments/surprise_control_exp/stim/9_noeffect.mov 486 25-May-2018 11:41:19 -6.714314e+01 1.588593e+02 0 0
16dp26_f21 588 18 7 -45 45 right 0 5.000000e-01 /Users/corrado/Dropbox/experiments/surprise_control_exp/stim/1_noeffect.mov 492 25-May-2018 11:41:22 5.489833e+01 -9.971066e+00 0 0
16dp26_f21 588 19 49 45 45 right 1 5.000000e-01 /Users/corrado/Dropbox/experiments/surprise_control_exp/stim/7_noeffect.mov 490 25-May-2018 11:41:24 3.451504e+02 -3.421352e+02 0 0
16dp26_f21 588 20 47 -45 45 left 1 5.000000e-01 /Users/corrado/Dropbox/experiments/surprise_control_exp/stim/6_noeffect.mov 697 25-May-2018 11:41:40 -1.757087e+01 1.234176e+02 0 1
16dp26_f21 588 21 16 -45 -45 left 1 5.000000e-01 /Users/corrado/Dropbox/experiments/surprise_control_exp/stim/2_noeffect.mov 508 25-May-2018 11:41:43 1.953225e+02 4.341673e+02 0 0
16dp26_f21 588 22 42 45 -45 right 1 5.000000e-01 /Users/corrado/Dropbox/experiments/surprise_control_exp/stim/6_noeffect.mov 464 25-May-2018 11:41:46 1.377669e+02 1.669101e+02 0 0
16dp26_f21 588 23 4 -45 -45 left 1 5.000000e-01 /Users/corrado/Dropbox/experiments/surprise_control_exp/stim/1_noeffect.mov 593 25-May-2018 11:41:49 -2.969172e+02 3.493933e+01 0 0
16dp26_f21 588 24 71 -45 45 left 1 5.000000e-01 /Users/corrado/Dropbox/experiments/surprise_control_exp/stim/9_noeffect.mov 746 25-May-2018 11:42:12 7.598776e+01 -1.615206e+02 0 1
16dp26_f21 588 25 11 -45 45 left 1 5.000000e-01 /Users/corrado/Dropbox/experiments/surprise_control_exp/stim/2_noeffect.mov 393 25-May-2018 11:42:14 1.206658e+02 -1.969716e+02 0 0
16dp26_f21 588 26 14 45 -45 right 1 5.000000e-01 /Users/corrado/Dropbox/experiments/surprise_control_exp/stim/2_noeffect.mov 542 25-May-2018 11:42:17 -6.740994e+01 3.235866e+02 0 0
16dp26_f21 588 27 2 45 -45 right 1 5.000000e-01 /Users/corrado/Dropbox/experiments/surprise_control_exp/stim/1_noeffect.mov 456 25-May-2018 11:42:20 6.432589e+01 -4.240747e+01 0 0
16dp26_f21 588 28 59 -45 45 left 1 5.000000e-01 /Users/corrado/Dropbox/experiments/surprise_control_exp/stim/8_noeffect.mov 629 25-May-2018 11:42:42 2.857336e+02 1.093846e+02 0 1
16dp26_f21 588 29 29 45 45 right 1 5.000000e-01 /Users/corrado/Dropbox/experiments/surprise_control_exp/stim/4_noeffect.mov 428 25-May-2018 11:42:45 8.246729e+01 -1.019072e+01 0 0
16dp26_f21 588 30 21 45 45 right 1 5.000000e-01 /Users/corrado/Dropbox/experiments/surprise_control_exp/stim/3_noeffect.mov 469 25-May-2018 11:42:48 6.163492e+01 -3.862976e+02 0 0
16dp26_f21 588 31 54 45 -45 right 1 5.000000e-01 /Users/corrado/Dropbox/experiments/surprise_control_exp/stim/7_noeffect.mov 543 25-May-2018 11:42:50 2.567110e+02 -2.088112e+01 0 0
16dp26_f21 588 32 35 -45 45 left 1 5.000000e-01 /Users/corrado/Dropbox/experiments/surprise_control_exp/stim/5_noeffect.mov 746 25-May-2018 11:43:08 -3.863782e+02 -3.504163e+02 0 1
16dp26_f21 588 33 57 45 45 right 1 5.000000e-01 /Users/corrado/Dropbox/experiments/surprise_control_exp/stim/8_noeffect.mov 439 25-May-2018 11:43:11 4.225160e+02 1.329051e+02 0 0
16dp26_f21 588 34 20 -45 -45 left 1 5.000000e-01 /Users/corrado/Dropbox/experiments/surprise_control_exp/stim/2_noeffect.mov 416 25-May-2018 11:43:14 3.018436e+02 3.013768e+02 0 0
16dp26_f21 588 35 76 -45 -45 left 1 5.000000e-01 /Users/corrado/Dropbox/experiments/surprise_control_exp/stim/9_noeffect.mov 403 25-May-2018 11:43:16 -4.774738e+02 -1.072293e+02 0 0
16dp26_f21 588 36 61 45 45 right 1 5.000000e-01 /Users/corrado/Dropbox/experiments/surprise_control_exp/stim/8_noeffect.mov 698 25-May-2018 11:43:38 3.033879e+01 4.593790e+02 0 1
16dp26_f21 588 37 22 45 -45 right 1 5.000000e-01 /Users/corrado/Dropbox/experiments/surprise_control_exp/stim/3_noeffect.mov 576 25-May-2018 11:43:41 -4.463328e+02 4.381670e+02 0 0
16dp26_f21 588 38 66 45 -45 right 1 5.000000e-01 /Users/corrado/Dropbox/experiments/surprise_control_exp/stim/9_noeffect.mov 424 25-May-2018 11:43:44 1.298468e+02 -2.131041e+02 0 0
16dp26_f21 588 39 73 45 45 right 1 5.000000e-01 /Users/corrado/Dropbox/experiments/surprise_control_exp/stim/9_noeffect.mov 465 25-May-2018 11:43:47 2.350740e+02 -8.783343e+01 0 0
16dp26_f21 588 40 69 45 45 right 1 5.000000e-01 /Users/corrado/Dropbox/experiments/surprise_control_exp/stim/9_noeffect.mov 697 25-May-2018 11:44:10 -4.984968e+02 -4.594146e+02 0 1
16dp26_f21 588 41 48 -45 -45 left 1 5.000000e-01 /Users/corrado/Dropbox/experiments/surprise_control_exp/stim/6_noeffect.mov 475 25-May-2018 11:44:13 1.925768e+02 2.064012e+02 0 0
16dp26_f21 588 42 12 -45 -45 left 1 5.000000e-01 /Users/corrado/Dropbox/experiments/surprise_control_exp/stim/2_noeffect.mov 464 25-May-2018 11:44:15 -4.176976e+02 -1.053687e+02 0 0
16dp26_f21 588 43 17 45 45 left 0 5.000000e-01 /Users/corrado/Dropbox/experiments/surprise_control_exp/stim/2_noeffect.mov 542 25-May-2018 11:44:18 1.975850e+02 -1.387250e+02 0 0
16dp26_f21 588 44 78 45 -45 right 1 5.000000e-01 /Users/corrado/Dropbox/experiments/surprise_control_exp/stim/9_noeffect.mov 613 25-May-2018 11:44:41 2.322351e+02 9.007925e+01 0 1
16dp26_f21 588 45 70 45 -45 right 1 5.000000e-01 /Users/corrado/Dropbox/experiments/surprise_control_exp/stim/9_noeffect.mov 627 25-May-2018 11:44:44 -4.841748e+02 -4.706630e+01 0 0
16dp26_f21 588 46 32 -45 -45 left 1 5.000000e-01 /Users/corrado/Dropbox/experiments/surprise_control_exp/stim/4_noeffect.mov 435 25-May-2018 11:44:47 1.500703e+01 -3.386585e+02 0 0
16dp26_f21 588 47 63 -45 45 left 1 5.000000e-01 /Users/corrado/Dropbox/experiments/surprise_control_exp/stim/8_noeffect.mov 525 25-May-2018 11:44:50 1.383821e+02 -4.884535e+02 0 0
16dp26_f21 588 48 3 -45 45 left 1 5.000000e-01 /Users/corrado/Dropbox/experiments/surprise_control_exp/stim/1_noeffect.mov 696 25-May-2018 11:45:16 -4.231158e+02 -1.395911e+01 0 1
16dp26_f21 588 49 58 45 -45 left 0 5.000000e-01 /Users/corrado/Dropbox/experiments/surprise_control_exp/stim/8_noeffect.mov 400 25-May-2018 11:45:19 -3.466461e+02 4.414429e+01 0 0
16dp26_f21 588 50 46 45 -45 right 1 5.000000e-01 /Users/corrado/Dropbox/experiments/surprise_control_exp/stim/6_noeffect.mov 643 25-May-2018 11:45:22 2.051284e+02 -9.109449e+01 0 0
16dp26_f21 588 51 37 45 45 right 1 5.000000e-01 /Users/corrado/Dropbox/experiments/surprise_control_exp/stim/5_noeffect.mov 976 25-May-2018 11:45:25 -2.595513e+02 9.363962e+01 0 0
16dp26_f21 588 52 23 -45 45 left 1 5.000000e-01 /Users/corrado/Dropbox/experiments/surprise_control_exp/stim/3_noeffect.mov 665 25-May-2018 11:45:44 -1.748293e+02 3.114124e+02 0 1
16dp26_f21 588 53 34 45 -45 right 1 5.000000e-01 /Users/corrado/Dropbox/experiments/surprise_control_exp/stim/5_noeffect.mov 485 25-May-2018 11:45:47 -1.564436e+01 -4.880846e+02 0 0
16dp26_f21 588 54 9 45 45 right 1 5.000000e-01 /Users/corrado/Dropbox/experiments/surprise_control_exp/stim/2_noeffect.mov 576 25-May-2018 11:45:50 -4.199857e+02 4.797561e+02 0 0
16dp26_f21 588 55 51 -45 45 left 1 5.000000e-01 /Users/corrado/Dropbox/experiments/surprise_control_exp/stim/7_noeffect.mov 560 25-May-2018 11:45:53 -1.711665e+02 1.996969e+02 0 0
16dp26_f21 588 56 55 -45 45 left 1 5.000000e-01 /Users/corrado/Dropbox/experiments/surprise_control_exp/stim/7_noeffect.mov 879 25-May-2018 11:46:13 -4.398966e+01 2.614479e+01 0 1
16dp26_f21 588 57 15 -45 45 left 1 5.000000e-01 /Users/corrado/Dropbox/experiments/surprise_control_exp/stim/2_noeffect.mov 560 25-May-2018 11:46:16 4.779310e+02 -3.339178e+02 0 0
16dp26_f21 588 58 6 45 -45 right 1 5.000000e-01 /Users/corrado/Dropbox/experiments/surprise_control_exp/stim/1_noeffect.mov 526 25-May-2018 11:46:19 2.222711e+02 3.174583e+02 0 0
16dp26_f21 588 59 5 45 45 right 1 5.000000e-01 /Users/corrado/Dropbox/experiments/surprise_control_exp/stim/1_noeffect.mov 467 25-May-2018 11:46:22 -4.687192e+02 -2.921302e+02 0 0
16dp26_f21 588 60 65 45 45 right 1 5.000000e-01 /Users/corrado/Dropbox/experiments/surprise_control_exp/stim/9_noeffect.mov 649 25-May-2018 11:46:45 1.394182e+01 3.980311e+02 0 1
16dp26_f21 588 61 40 -45 -45 left 1 5.000000e-01 /Users/corrado/Dropbox/experiments/surprise_control_exp/stim/5_noeffect.mov 456 25-May-2018 11:46:48 -1.514455e+02 -1.434386e+02 0 0
16dp26_f21 588 62 53 45 45 right 1 5.000000e-01 /Users/corrado/Dropbox/experiments/surprise_control_exp/stim/7_noeffect.mov 399 25-May-2018 11:46:50 1.675860e+02 1.383908e+02 0 0
16dp26_f21 588 63 25 45 45 right 1 5.000000e-01 /Users/corrado/Dropbox/experiments/surprise_control_exp/stim/4_noeffect.mov 409 25-May-2018 11:46:53 -4.328404e+01 9.188582e+01 0 0
16dp26_f21 588 64 33 45 45 right 1 5.000000e-01 /Users/corrado/Dropbox/experiments/surprise_control_exp/stim/5_noeffect.mov 547 25-May-2018 11:47:10 -1.109204e+02 1.881407e+02 0 1
16dp26_f21 588 65 18 45 -45 right 1 5.000000e-01 /Users/corrado/Dropbox/experiments/surprise_control_exp/stim/2_noeffect.mov 609 25-May-2018 11:47:13 -1.952737e+01 3.308652e+02 0 0
16dp26_f21 588 66 68 -45 -45 left 1 5.000000e-01 /Users/corrado/Dropbox/experiments/surprise_control_exp/stim/9_noeffect.mov 675 25-May-2018 11:47:16 -4.292250e+02 -4.345668e+01 0 0
16dp26_f21 588 67 56 -45 -45 left 1 5.000000e-01 /Users/corrado/Dropbox/experiments/surprise_control_exp/stim/7_noeffect.mov 429 25-May-2018 11:47:19 -1.801822e+02 -2.110551e+02 0 0
16dp26_f21 588 68 67 -45 45 left 1 5.000000e-01 /Users/corrado/Dropbox/experiments/surprise_control_exp/stim/9_noeffect.mov 596 25-May-2018 11:47:42 -1.365392e+02 -9.407172e+01 0 1
16dp26_f21 588 69 74 45 -45 right 1 5.000000e-01 /Users/corrado/Dropbox/experiments/surprise_control_exp/stim/9_noeffect.mov 593 25-May-2018 11:47:45 4.980523e+02 -1.524630e+02 0 0
16dp26_f21 588 70 30 45 -45 right 1 5.000000e-01 /Users/corrado/Dropbox/experiments/surprise_control_exp/stim/4_noeffect.mov 429 25-May-2018 11:47:48 1.469564e+02 1.989319e+02 0 0
16dp26_f21 588 71 36 -45 -45 right 0 5.000000e-01 /Users/corrado/Dropbox/experiments/surprise_control_exp/stim/5_noeffect.mov 542 25-May-2018 11:47:50 -4.036698e+02 -2.930334e+02 0 0
16dp26_f21 588 72 77 45 45 right 1 5.000000e-01 /Users/corrado/Dropbox/experiments/surprise_control_exp/stim/9_noeffect.mov 881 25-May-2018 11:48:14 -1.825184e+02 -3.088476e+02 0 1
16dp26_f21 588 73 38 45 -45 right 1 5.000000e-01 /Users/corrado/Dropbox/experiments/surprise_control_exp/stim/5_noeffect.mov 559 25-May-2018 11:48:17 -4.917435e+02 9.920008e+01 0 0
16dp26_f21 588 74 80 -45 -45 left 1 5.000000e-01 /Users/corrado/Dropbox/experiments/surprise_control_exp/stim/9_noeffect.mov 434 25-May-2018 11:48:19 2.849776e+02 -4.572496e+02 0 0
16dp26_f21 588 75 24 -45 -45 left 1 5.000000e-01 /Users/corrado/Dropbox/experiments/surprise_control_exp/stim/3_noeffect.mov 433 25-May-2018 11:48:22 -1.815280e+02 -9.454631e+01 0 0
16dp26_f21 588 76 39 -45 45 left 1 5.000000e-01 /Users/corrado/Dropbox/experiments/surprise_control_exp/stim/5_noeffect.mov 764 25-May-2018 11:48:40 4.742602e+02 -7.686977e+01 0 1
16dp26_f21 588 77 45 45 45 right 1 5.000000e-01 /Users/corrado/Dropbox/experiments/surprise_control_exp/stim/6_noeffect.mov 482 25-May-2018 11:48:43 2.318984e+02 4.225658e+02 0 0
16dp26_f21 588 78 43 -45 45 left 1 5.000000e-01 /Users/corrado/Dropbox/experiments/surprise_control_exp/stim/6_noeffect.mov 543 25-May-2018 11:48:45 4.742146e-02 1.294820e+01 0 0
16dp26_f21 588 79 19 -45 45 left 1 5.000000e-01 /Users/corrado/Dropbox/experiments/surprise_control_exp/stim/2_noeffect.mov 708 25-May-2018 11:48:48 -4.363581e+02 -2.406945e+02 0 0
16dp26_f21 588 80 79 -45 45 left 1 5.000000e-01 /Users/corrado/Dropbox/experiments/surprise_control_exp/stim/9_noeffect.mov 609 25-May-2018 11:48:51 -9.053456e+01 1.385448e+02 0 0
