subject_name subjectNumber iTrial unshuffled_trial targetOrientation flankersOrientation response correct onscreen_stim_duration magicShows rt date time_of_day deltaX deltaY surpriseClip isClipTrial
16az17_m20 549 1 78 45 -45 right 1 5.000000e-01 /Users/corrado/Dropbox/experiments/surprise_control_exp/stim/9_noeffect.mov 597 22-May-2018 12:59:25 -6.499347e+01 2.244631e+02 0 1
16az17_m20 549 2 53 45 45 right 1 5.000000e-01 /Users/corrado/Dropbox/experiments/surprise_control_exp/stim/7_noeffect.mov 472 22-May-2018 12:59:28 2.475764e+02 3.875261e+02 0 0
16az17_m20 549 3 39 -45 45 left 1 5.000000e-01 /Users/corrado/Dropbox/experiments/surprise_control_exp/stim/5_noeffect.mov 446 22-May-2018 12:59:31 -9.470938e+01 2.005714e+02 0 0
16az17_m20 549 4 67 -45 45 left 1 5.000000e-01 /Users/corrado/Dropbox/experiments/surprise_control_exp/stim/9_noeffect.mov 629 22-May-2018 12:59:54 2.101922e+02 3.949580e+01 0 1
16az17_m20 549 5 44 -45 -45 left 1 5.000000e-01 /Users/corrado/Dropbox/experiments/surprise_control_exp/stim/6_noeffect.mov 393 22-May-2018 12:59:57 -9.815174e+01 6.472715e+01 0 0
16az17_m20 549 6 76 -45 -45 left 1 5.000000e-01 /Users/corrado/Dropbox/experiments/surprise_control_exp/stim/9_noeffect.mov 561 22-May-2018 13:00:00 2.598627e+02 -9.641530e+01 0 0
16az17_m20 549 7 70 45 -45 right 1 5.000000e-01 /Users/corrado/Dropbox/experiments/surprise_control_exp/stim/9_noeffect.mov 610 22-May-2018 13:00:02 2.100904e+02 2.916583e+02 0 0
16az17_m20 549 8 37 45 45 right 1 5.000000e-01 /Users/corrado/Dropbox/experiments/surprise_control_exp/stim/5_noeffect.mov 780 22-May-2018 13:00:20 1.815525e+02 -2.617589e+02 0 1
16az17_m20 549 9 3 -45 45 left 1 5.000000e-01 /Users/corrado/Dropbox/experiments/surprise_control_exp/stim/1_noeffect.mov 499 22-May-2018 13:00:23 -2.540403e+02 -3.836409e+02 0 0
16az17_m20 549 10 48 -45 -45 left 1 5.000000e-01 /Users/corrado/Dropbox/experiments/surprise_control_exp/stim/6_noeffect.mov 544 22-May-2018 13:00:26 -4.401933e+01 2.412599e+02 0 0
16az17_m20 549 11 62 45 -45 right 1 5.000000e-01 /Users/corrado/Dropbox/experiments/surprise_control_exp/stim/8_noeffect.mov 565 22-May-2018 13:00:28 2.319038e+02 4.291535e+01 0 0
16az17_m20 549 12 43 -45 45 left 1 5.000000e-01 /Users/corrado/Dropbox/experiments/surprise_control_exp/stim/6_noeffect.mov 598 22-May-2018 13:00:44 2.649803e+01 2.473336e+02 0 1
16az17_m20 549 13 63 -45 45 left 1 5.000000e-01 /Users/corrado/Dropbox/experiments/surprise_control_exp/stim/8_noeffect.mov 611 22-May-2018 13:00:47 2.092745e+02 -2.252373e+02 0 0
16az17_m20 549 14 45 45 45 right 1 5.000000e-01 /Users/corrado/Dropbox/experiments/surprise_control_exp/stim/6_noeffect.mov 593 22-May-2018 13:00:50 -3.360954e+02 4.998676e+02 0 0
16az17_m20 549 15 72 -45 -45 left 1 5.000000e-01 /Users/corrado/Dropbox/experiments/surprise_control_exp/stim/9_noeffect.mov 543 22-May-2018 13:00:53 4.168516e+02 1.188292e+02 0 0
16az17_m20 549 16 56 -45 -45 left 1 5.000000e-01 /Users/corrado/Dropbox/experiments/surprise_control_exp/stim/7_noeffect.mov 1230 22-May-2018 13:01:13 2.568357e+02 -9.136834e+01 0 1
16az17_m20 549 17 34 45 -45 right 1 5.000000e-01 /Users/corrado/Dropbox/experiments/surprise_control_exp/stim/5_noeffect.mov 545 22-May-2018 13:01:16 2.915242e+02 -1.063913e+02 0 0
16az17_m20 549 18 7 -45 45 left 1 5.000000e-01 /Users/corrado/Dropbox/experiments/surprise_control_exp/stim/1_noeffect.mov 527 22-May-2018 13:01:19 4.067932e+02 -2.624830e+02 0 0
16az17_m20 549 19 58 45 -45 right 1 5.000000e-01 /Users/corrado/Dropbox/experiments/surprise_control_exp/stim/8_noeffect.mov 545 22-May-2018 13:01:22 2.179933e+02 2.282288e+02 0 0
16az17_m20 549 20 13 45 45 right 1 5.000000e-01 /Users/corrado/Dropbox/experiments/surprise_control_exp/stim/2_noeffect.mov 680 22-May-2018 13:01:48 1.520007e+02 -4.556245e+02 0 1
16az17_m20 549 21 79 -45 45 left 1 5.000000e-01 /Users/corrado/Dropbox/experiments/surprise_control_exp/stim/9_noeffect.mov 493 22-May-2018 13:01:51 3.069357e+02 4.755079e+02 0 0
16az17_m20 549 22 47 -45 45 left 1 5.000000e-01 /Users/corrado/Dropbox/experiments/surprise_control_exp/stim/6_noeffect.mov 544 22-May-2018 13:01:54 2.102611e+02 -4.016386e+02 0 0
16az17_m20 549 23 8 -45 -45 left 1 5.000000e-01 /Users/corrado/Dropbox/experiments/surprise_control_exp/stim/1_noeffect.mov 510 22-May-2018 13:01:57 4.911169e+02 1.895479e+01 0 0
16az17_m20 549 24 46 45 -45 right 1 5.000000e-01 /Users/corrado/Dropbox/experiments/surprise_control_exp/stim/6_noeffect.mov 681 22-May-2018 13:02:12 3.841147e+02 2.677612e+02 0 1
16az17_m20 549 25 10 45 -45 right 1 5.000000e-01 /Users/corrado/Dropbox/experiments/surprise_control_exp/stim/2_noeffect.mov 527 22-May-2018 13:02:15 3.495557e+02 -3.328036e+02 0 0
16az17_m20 549 26 32 -45 -45 right 0 5.000000e-01 /Users/corrado/Dropbox/experiments/surprise_control_exp/stim/4_noeffect.mov 526 22-May-2018 13:02:18 -3.417810e+02 -1.558023e+02 0 0
16az17_m20 549 27 42 45 -45 right 1 5.000000e-01 /Users/corrado/Dropbox/experiments/surprise_control_exp/stim/6_noeffect.mov 628 22-May-2018 13:02:21 3.483057e+02 2.217976e+02 0 0
16az17_m20 549 28 17 45 45 right 1 5.000000e-01 /Users/corrado/Dropbox/experiments/surprise_control_exp/stim/2_noeffect.mov 680 22-May-2018 13:02:47 4.298392e+02 1.869347e+02 0 1
16az17_m20 549 29 20 -45 -45 left 1 5.000000e-01 /Users/corrado/Dropbox/experiments/surprise_control_exp/stim/2_noeffect.mov 1076 22-May-2018 13:02:50 -4.409433e+02 -3.910297e+02 0 0
16az17_m20 549 30 60 -45 -45 left 1 5.000000e-01 /Users/corrado/Dropbox/experiments/surprise_control_exp/stim/8_noeffect.mov 577 22-May-2018 13:02:53 2.727905e+02 2.990257e+02 0 0
16az17_m20 549 31 69 45 45 right 1 5.000000e-01 /Users/corrado/Dropbox/experiments/surprise_control_exp/stim/9_noeffect.mov 480 22-May-2018 13:02:56 3.319474e+02 -2.072654e+02 0 0
16az17_m20 549 32 61 45 45 right 1 5.000000e-01 /Users/corrado/Dropbox/experiments/surprise_control_exp/stim/8_noeffect.mov 930 22-May-2018 13:03:18 -4.825441e+02 -2.438756e+02 0 1
16az17_m20 549 33 2 45 -45 right 1 5.000000e-01 /Users/corrado/Dropbox/experiments/surprise_control_exp/stim/1_noeffect.mov 498 22-May-2018 13:03:21 5.773198e+01 3.279788e+01 0 0
16az17_m20 549 34 30 45 -45 right 1 5.000000e-01 /Users/corrado/Dropbox/experiments/surprise_control_exp/stim/4_noeffect.mov 610 22-May-2018 13:03:24 9.798308e+01 2.340583e+02 0 0
16az17_m20 549 35 26 45 -45 right 1 5.000000e-01 /Users/corrado/Dropbox/experiments/surprise_control_exp/stim/4_noeffect.mov 595 22-May-2018 13:03:27 -1.339282e+02 4.934771e+02 0 0
16az17_m20 549 36 40 -45 -45 left 1 5.000000e-01 /Users/corrado/Dropbox/experiments/surprise_control_exp/stim/5_noeffect.mov 1130 22-May-2018 13:03:45 -3.589645e+01 -2.150270e+02 0 1
16az17_m20 549 37 14 45 -45 right 1 5.000000e-01 /Users/corrado/Dropbox/experiments/surprise_control_exp/stim/2_noeffect.mov 744 22-May-2018 13:03:48 4.754661e+02 3.477387e+02 0 0
16az17_m20 549 38 65 45 45 right 1 5.000000e-01 /Users/corrado/Dropbox/experiments/surprise_control_exp/stim/9_noeffect.mov 610 22-May-2018 13:03:51 -8.005532e+01 -1.859195e+02 0 0
16az17_m20 549 39 24 -45 -45 left 1 5.000000e-01 /Users/corrado/Dropbox/experiments/surprise_control_exp/stim/3_noeffect.mov 627 22-May-2018 13:03:53 2.451409e+02 -1.893950e+02 0 0
16az17_m20 549 40 21 45 45 right 1 5.000000e-01 /Users/corrado/Dropbox/experiments/surprise_control_exp/stim/3_noeffect.mov 746 22-May-2018 13:04:13 -3.517300e+01 9.110929e+01 0 1
16az17_m20 549 41 4 -45 -45 left 1 5.000000e-01 /Users/corrado/Dropbox/experiments/surprise_control_exp/stim/1_noeffect.mov 945 22-May-2018 13:04:16 1.199923e+02 1.105858e+02 0 0
16az17_m20 549 42 71 -45 45 left 1 5.000000e-01 /Users/corrado/Dropbox/experiments/surprise_control_exp/stim/9_noeffect.mov 743 22-May-2018 13:04:19 3.870298e+02 -7.923964e+01 0 0
16az17_m20 549 43 18 45 -45 right 1 5.000000e-01 /Users/corrado/Dropbox/experiments/surprise_control_exp/stim/2_noeffect.mov 577 22-May-2018 13:04:22 1.872865e+02 -4.294263e+02 0 0
16az17_m20 549 44 35 -45 45 left 1 5.000000e-01 /Users/corrado/Dropbox/experiments/surprise_control_exp/stim/5_noeffect.mov 764 22-May-2018 13:04:40 -2.498995e+02 3.391890e+02 0 1
16az17_m20 549 45 51 -45 45 left 1 5.000000e-01 /Users/corrado/Dropbox/experiments/surprise_control_exp/stim/7_noeffect.mov 544 22-May-2018 13:04:42 -3.036758e+02 -1.283602e+02 0 0
16az17_m20 549 46 1 45 45 right 1 5.000000e-01 /Users/corrado/Dropbox/experiments/surprise_control_exp/stim/1_noeffect.mov 544 22-May-2018 13:04:45 2.937091e+02 -4.496457e+02 0 0
16az17_m20 549 47 41 45 45 right 1 5.000000e-01 /Users/corrado/Dropbox/experiments/surprise_control_exp/stim/6_noeffect.mov 610 22-May-2018 13:04:48 -3.499155e+02 4.955203e+02 0 0
16az17_m20 549 48 66 45 -45 left 0 5.000000e-01 /Users/corrado/Dropbox/experiments/surprise_control_exp/stim/9_noeffect.mov 146 22-May-2018 13:05:11 -2.542583e+02 2.602344e+01 0 1
16az17_m20 549 49 80 -45 -45 left 1 5.000000e-01 /Users/corrado/Dropbox/experiments/surprise_control_exp/stim/9_noeffect.mov 697 22-May-2018 13:05:14 -2.506869e+02 3.044504e+02 0 0
16az17_m20 549 50 68 -45 -45 left 1 5.000000e-01 /Users/corrado/Dropbox/experiments/surprise_control_exp/stim/9_noeffect.mov 611 22-May-2018 13:05:16 -2.976701e+02 3.530106e+02 0 0
16az17_m20 549 51 73 45 45 right 1 5.000000e-01 /Users/corrado/Dropbox/experiments/surprise_control_exp/stim/9_noeffect.mov 486 22-May-2018 13:05:19 3.623112e+02 1.755155e+02 0 0
16az17_m20 549 52 36 -45 -45 right 0 5.000000e-01 /Users/corrado/Dropbox/experiments/surprise_control_exp/stim/5_noeffect.mov 2196 22-May-2018 13:05:38 3.042862e+02 -1.113938e+02 0 1
16az17_m20 549 53 16 -45 -45 left 1 5.000000e-01 /Users/corrado/Dropbox/experiments/surprise_control_exp/stim/2_noeffect.mov 456 22-May-2018 13:05:41 1.045238e+02 -4.745315e-01 0 0
16az17_m20 549 54 11 -45 45 left 1 5.000000e-01 /Users/corrado/Dropbox/experiments/surprise_control_exp/stim/2_noeffect.mov 566 22-May-2018 13:05:44 -2.188002e+02 -3.441426e+02 0 0
16az17_m20 549 55 25 45 45 right 1 5.000000e-01 /Users/corrado/Dropbox/experiments/surprise_control_exp/stim/4_noeffect.mov 510 22-May-2018 13:05:47 -1.218080e+00 4.470874e+02 0 0
16az17_m20 549 56 49 45 45 right 1 5.000000e-01 /Users/corrado/Dropbox/experiments/surprise_control_exp/stim/7_noeffect.mov 697 22-May-2018 13:06:07 4.946447e+02 -2.158389e+02 0 1
16az17_m20 549 57 77 45 45 right 1 5.000000e-01 /Users/corrado/Dropbox/experiments/surprise_control_exp/stim/9_noeffect.mov 659 22-May-2018 13:06:10 -2.255567e+02 -2.019326e+02 0 0
16az17_m20 549 58 75 -45 45 left 1 5.000000e-01 /Users/corrado/Dropbox/experiments/surprise_control_exp/stim/9_noeffect.mov 577 22-May-2018 13:06:13 3.207513e+02 -2.815387e+02 0 0
16az17_m20 549 59 59 -45 45 left 1 5.000000e-01 /Users/corrado/Dropbox/experiments/surprise_control_exp/stim/8_noeffect.mov 445 22-May-2018 13:06:15 -1.673045e+02 -1.272885e+02 0 0
16az17_m20 549 60 5 45 45 right 1 5.000000e-01 /Users/corrado/Dropbox/experiments/surprise_control_exp/stim/1_noeffect.mov 597 22-May-2018 13:06:42 -3.460874e+02 6.251536e+01 0 1
16az17_m20 549 61 31 -45 45 left 1 5.000000e-01 /Users/corrado/Dropbox/experiments/surprise_control_exp/stim/4_noeffect.mov 510 22-May-2018 13:06:44 -2.314522e+02 2.327983e+02 0 0
16az17_m20 549 62 12 -45 -45 left 1 5.000000e-01 /Users/corrado/Dropbox/experiments/surprise_control_exp/stim/2_noeffect.mov 761 22-May-2018 13:06:47 4.447304e+02 -2.563655e+02 0 0
16az17_m20 549 63 52 -45 -45 left 1 5.000000e-01 /Users/corrado/Dropbox/experiments/surprise_control_exp/stim/7_noeffect.mov 576 22-May-2018 13:06:50 3.404920e+02 -1.172020e+02 0 0
16az17_m20 549 64 74 45 -45 right 1 5.000000e-01 /Users/corrado/Dropbox/experiments/surprise_control_exp/stim/9_noeffect.mov 662 22-May-2018 13:07:13 1.318477e+02 2.521850e+02 0 1
16az17_m20 549 65 38 45 -45 right 1 5.000000e-01 /Users/corrado/Dropbox/experiments/surprise_control_exp/stim/5_noeffect.mov 472 22-May-2018 13:07:16 2.189822e+02 1.244938e+01 0 0
16az17_m20 549 66 50 45 -45 right 1 5.000000e-01 /Users/corrado/Dropbox/experiments/surprise_control_exp/stim/7_noeffect.mov 510 22-May-2018 13:07:19 7.006854e+01 -3.488092e+02 0 0
16az17_m20 549 67 64 -45 -45 left 1 5.000000e-01 /Users/corrado/Dropbox/experiments/surprise_control_exp/stim/8_noeffect.mov 645 22-May-2018 13:07:22 4.390555e+02 -1.549806e+02 0 0
16az17_m20 549 68 27 -45 45 left 1 5.000000e-01 /Users/corrado/Dropbox/experiments/surprise_control_exp/stim/4_noeffect.mov 730 22-May-2018 13:07:40 4.403374e+02 3.278957e+02 0 1
16az17_m20 549 69 29 45 45 right 1 5.000000e-01 /Users/corrado/Dropbox/experiments/surprise_control_exp/stim/4_noeffect.mov 543 22-May-2018 13:07:43 1.116418e+02 -7.153515e+01 0 0
16az17_m20 549 70 19 -45 45 left 1 5.000000e-01 /Users/corrado/Dropbox/experiments/surprise_control_exp/stim/2_noeffect.mov 483 22-May-2018 13:07:45 2.160814e+02 -3.581974e+02 0 0
16az17_m20 549 71 55 -45 45 left 1 5.000000e-01 /Users/corrado/Dropbox/experiments/surprise_control_exp/stim/7_noeffect.mov 577 22-May-2018 13:07:48 -4.602334e+02 -3.358554e+02 0 0
16az17_m20 549 72 6 45 -45 right 1 5.000000e-01 /Users/corrado/Dropbox/experiments/surprise_control_exp/stim/1_noeffect.mov 612 22-May-2018 13:08:14 3.784703e+02 2.451107e+02 0 1
16az17_m20 549 73 22 45 -45 right 1 5.000000e-01 /Users/corrado/Dropbox/experiments/surprise_control_exp/stim/3_noeffect.mov 510 22-May-2018 13:08:17 -4.694262e+01 -3.671113e+02 0 0
16az17_m20 549 74 28 -45 -45 left 1 5.000000e-01 /Users/corrado/Dropbox/experiments/surprise_control_exp/stim/4_noeffect.mov 577 22-May-2018 13:08:20 4.397687e+02 -1.563167e+02 0 0
16az17_m20 549 75 33 45 45 right 1 5.000000e-01 /Users/corrado/Dropbox/experiments/surprise_control_exp/stim/5_noeffect.mov 593 22-May-2018 13:08:23 -3.689210e+02 -1.560360e+02 0 0
16az17_m20 549 76 15 -45 45 left 1 5.000000e-01 /Users/corrado/Dropbox/experiments/surprise_control_exp/stim/2_noeffect.mov 731 22-May-2018 13:08:49 -1.911851e+01 -1.970466e+02 0 1
16az17_m20 549 77 9 45 45 right 1 5.000000e-01 /Users/corrado/Dropbox/experiments/surprise_control_exp/stim/2_noeffect.mov 595 22-May-2018 13:08:52 3.267417e+02 -9.613120e+00 0 0
16az17_m20 549 78 23 -45 45 left 1 5.000000e-01 /Users/corrado/Dropbox/experiments/surprise_control_exp/stim/3_noeffect.mov 610 22-May-2018 13:08:55 -4.308673e+02 -2.612491e+02 0 0
16az17_m20 549 79 54 45 -45 right 1 5.000000e-01 /Users/corrado/Dropbox/experiments/surprise_control_exp/stim/7_noeffect.mov 575 22-May-2018 13:08:58 2.678093e+02 -2.344787e+02 0 0
16az17_m20 549 80 57 45 45 right 1 5.000000e-01 /Users/corrado/Dropbox/experiments/surprise_control_exp/stim/8_noeffect.mov 827 22-May-2018 13:09:01 1.968482e+02 -1.921656e+02 0 0
