subject_name subjectNumber iTrial unshuffled_trial targetOrientation flankersOrientation response correct onscreen_stim_duration magicShows rt date time_of_day deltaX deltaY surpriseClip isClipTrial
72GG03_F25 4 1 76 -45 -45 left 1 5.000000e-01 /Users/lab/Documents/magic_control_exp/stim/9_noeffect.mov 424 25-Sep-2017 13:45:51 -7.645267e+01 3.487613e+02 0 1
72GG03_F25 4 2 25 45 45 right 1 5.000000e-01 /Users/lab/Documents/magic_control_exp/stim/4_noeffect.mov 430 25-Sep-2017 13:45:53 -6.179784e+01 3.299165e+02 0 0
72GG03_F25 4 3 30 45 -45 right 1 5.000000e-01 /Users/lab/Documents/magic_control_exp/stim/4_noeffect.mov 515 25-Sep-2017 13:45:56 -4.309128e+00 2.776215e+02 0 0
72GG03_F25 4 4 23 -45 45 left 1 5.000000e-01 /Users/lab/Documents/magic_control_exp/stim/3_noeffect.mov 664 25-Sep-2017 13:46:16 -2.629356e+02 3.081637e+02 0 1
72GG03_F25 4 5 50 45 -45 right 1 5.000000e-01 /Users/lab/Documents/magic_control_exp/stim/7_noeffect.mov 584 25-Sep-2017 13:46:18 -3.717294e+02 -1.888250e+02 0 0
72GG03_F25 4 6 70 45 -45 right 1 5.000000e-01 /Users/lab/Documents/magic_control_exp/stim/9_noeffect.mov 527 25-Sep-2017 13:46:21 -2.172753e+02 1.147383e+02 0 0
72GG03_F25 4 7 1 45 45 right 1 5.000000e-01 /Users/lab/Documents/magic_control_exp/stim/1_noeffect.mov 418 25-Sep-2017 13:46:24 -4.141805e+02 1.429011e+02 0 0
72GG03_F25 4 8 61 45 45 right 1 5.000000e-01 /Users/lab/Documents/magic_control_exp/stim/8_noeffect.mov 532 25-Sep-2017 13:46:46 -4.952272e+02 6.606134e+01 0 1
72GG03_F25 4 9 36 -45 -45 left 1 5.000000e-01 /Users/lab/Documents/magic_control_exp/stim/5_noeffect.mov 545 25-Sep-2017 13:46:49 -2.857522e+02 -3.575905e+02 0 0
72GG03_F25 4 10 31 -45 45 left 1 5.000000e-01 /Users/lab/Documents/magic_control_exp/stim/4_noeffect.mov 480 25-Sep-2017 13:46:52 3.062468e+02 -9.864116e+01 0 0
72GG03_F25 4 11 69 45 45 right 1 5.000000e-01 /Users/lab/Documents/magic_control_exp/stim/9_noeffect.mov 456 25-Sep-2017 13:46:55 3.612560e+02 3.336508e+02 0 0
72GG03_F25 4 12 62 45 -45 right 1 5.000000e-01 /Users/lab/Documents/magic_control_exp/stim/8_noeffect.mov 713 25-Sep-2017 13:47:17 -1.120927e+02 -5.003546e+01 0 1
72GG03_F25 4 13 8 -45 -45 left 1 5.000000e-01 /Users/lab/Documents/magic_control_exp/stim/1_noeffect.mov 420 25-Sep-2017 13:47:20 -2.663176e+02 3.584150e+02 0 0
72GG03_F25 4 14 11 -45 45 left 1 5.000000e-01 /Users/lab/Documents/magic_control_exp/stim/2_noeffect.mov 617 25-Sep-2017 13:47:23 -3.833762e+02 -3.575427e+02 0 0
72GG03_F25 4 15 17 45 45 right 1 5.000000e-01 /Users/lab/Documents/magic_control_exp/stim/2_noeffect.mov 434 25-Sep-2017 13:47:25 4.020928e+02 1.524640e+02 0 0
72GG03_F25 4 16 38 45 -45 right 1 5.000000e-01 /Users/lab/Documents/magic_control_exp/stim/5_noeffect.mov 631 25-Sep-2017 13:47:43 1.715486e+01 1.045876e+01 0 1
72GG03_F25 4 17 33 45 45 right 1 5.000000e-01 /Users/lab/Documents/magic_control_exp/stim/5_noeffect.mov 396 25-Sep-2017 13:47:46 1.985298e+02 2.484393e+01 0 0
72GG03_F25 4 18 60 -45 -45 left 1 5.000000e-01 /Users/lab/Documents/magic_control_exp/stim/8_noeffect.mov 374 25-Sep-2017 13:47:48 -1.216422e+02 -4.286668e+02 0 0
72GG03_F25 4 19 58 45 -45 right 1 5.000000e-01 /Users/lab/Documents/magic_control_exp/stim/8_noeffect.mov 490 25-Sep-2017 13:47:51 2.902260e+02 3.053316e+02 0 0
72GG03_F25 4 20 43 -45 45 left 1 5.000000e-01 /Users/lab/Documents/magic_control_exp/stim/6_noeffect.mov 514 25-Sep-2017 13:48:07 -1.355849e+02 -4.205343e+02 0 1
72GG03_F25 4 21 5 45 45 right 1 5.000000e-01 /Users/lab/Documents/magic_control_exp/stim/1_noeffect.mov 401 25-Sep-2017 13:48:09 3.400952e+02 9.632124e+01 0 0
72GG03_F25 4 22 49 45 45 right 1 5.000000e-01 /Users/lab/Documents/magic_control_exp/stim/7_noeffect.mov 410 25-Sep-2017 13:48:12 -2.591430e+02 3.874474e+01 0 0
72GG03_F25 4 23 56 -45 -45 left 1 5.000000e-01 /Users/lab/Documents/magic_control_exp/stim/7_noeffect.mov 405 25-Sep-2017 13:48:15 -9.059993e+01 4.903040e+02 0 0
72GG03_F25 4 24 68 -45 -45 left 1 5.000000e-01 /Users/lab/Documents/magic_control_exp/stim/9_noeffect.mov 530 25-Sep-2017 13:48:38 -3.418973e+02 4.320045e+02 0 1
72GG03_F25 4 25 15 -45 45 left 1 5.000000e-01 /Users/lab/Documents/magic_control_exp/stim/2_noeffect.mov 561 25-Sep-2017 13:48:40 4.302007e+02 -2.568397e+02 0 0
72GG03_F25 4 26 26 45 -45 right 1 5.000000e-01 /Users/lab/Documents/magic_control_exp/stim/4_noeffect.mov 594 25-Sep-2017 13:48:43 -3.736632e+02 8.386434e+01 0 0
72GG03_F25 4 27 66 45 -45 right 1 5.000000e-01 /Users/lab/Documents/magic_control_exp/stim/9_noeffect.mov 467 25-Sep-2017 13:48:46 1.558143e+02 4.195547e+02 0 0
72GG03_F25 4 28 20 -45 -45 left 1 5.000000e-01 /Users/lab/Documents/magic_control_exp/stim/2_noeffect.mov 452 25-Sep-2017 13:49:12 -4.406319e+02 -2.807430e+02 0 1
72GG03_F25 4 29 63 -45 45 left 1 5.000000e-01 /Users/lab/Documents/magic_control_exp/stim/8_noeffect.mov 496 25-Sep-2017 13:49:15 4.537870e+02 -3.184511e+02 0 0
72GG03_F25 4 30 12 -45 -45 left 1 5.000000e-01 /Users/lab/Documents/magic_control_exp/stim/2_noeffect.mov 428 25-Sep-2017 13:49:18 -3.527443e+02 4.579996e+02 0 0
72GG03_F25 4 31 3 -45 45 left 1 5.000000e-01 /Users/lab/Documents/magic_control_exp/stim/1_noeffect.mov 610 25-Sep-2017 13:49:21 -2.052726e+02 4.853986e+02 0 0
72GG03_F25 4 32 6 45 -45 right 1 5.000000e-01 /Users/lab/Documents/magic_control_exp/stim/1_noeffect.mov 547 25-Sep-2017 13:49:47 -3.963887e+02 -4.265413e+02 0 1
72GG03_F25 4 33 77 45 45 right 1 5.000000e-01 /Users/lab/Documents/magic_control_exp/stim/9_noeffect.mov 406 25-Sep-2017 13:49:50 -1.442371e+02 -2.624767e+02 0 0
72GG03_F25 4 34 21 45 45 right 1 5.000000e-01 /Users/lab/Documents/magic_control_exp/stim/3_noeffect.mov 367 25-Sep-2017 13:49:53 1.216775e+02 -1.462888e+02 0 0
72GG03_F25 4 35 34 45 -45 right 1 5.000000e-01 /Users/lab/Documents/magic_control_exp/stim/5_noeffect.mov 560 25-Sep-2017 13:49:55 -4.636853e+02 3.531780e+02 0 0
72GG03_F25 4 36 37 45 45 right 1 5.000000e-01 /Users/lab/Documents/magic_control_exp/stim/5_noeffect.mov 663 25-Sep-2017 13:50:13 -1.218919e+02 -1.461507e+02 0 1
72GG03_F25 4 37 18 45 -45 right 1 5.000000e-01 /Users/lab/Documents/magic_control_exp/stim/2_noeffect.mov 485 25-Sep-2017 13:50:16 -1.905806e+02 -3.816748e+01 0 0
72GG03_F25 4 38 65 45 45 right 1 5.000000e-01 /Users/lab/Documents/magic_control_exp/stim/9_noeffect.mov 366 25-Sep-2017 13:50:18 4.523753e+02 -2.814572e+02 0 0
72GG03_F25 4 39 39 -45 45 left 1 5.000000e-01 /Users/lab/Documents/magic_control_exp/stim/5_noeffect.mov 545 25-Sep-2017 13:50:21 -2.548920e+02 3.164064e+02 0 0
72GG03_F25 4 40 54 45 -45 right 1 5.000000e-01 /Users/lab/Documents/magic_control_exp/stim/7_noeffect.mov 549 25-Sep-2017 13:50:41 -4.105278e+02 2.767739e+02 0 1
72GG03_F25 4 41 79 -45 45 left 1 5.000000e-01 /Users/lab/Documents/magic_control_exp/stim/9_noeffect.mov 455 25-Sep-2017 13:50:44 -9.945331e+00 7.439647e+01 0 0
72GG03_F25 4 42 35 -45 45 left 1 5.000000e-01 /Users/lab/Documents/magic_control_exp/stim/5_noeffect.mov 470 25-Sep-2017 13:50:47 -1.460537e+02 2.260483e+02 0 0
72GG03_F25 4 43 64 -45 -45 left 1 5.000000e-01 /Users/lab/Documents/magic_control_exp/stim/8_noeffect.mov 355 25-Sep-2017 13:50:50 -1.849293e+02 -5.241254e+01 0 0
72GG03_F25 4 44 28 -45 -45 left 1 5.000000e-01 /Users/lab/Documents/magic_control_exp/stim/4_noeffect.mov 631 25-Sep-2017 13:51:08 3.106151e+02 4.797989e+02 0 1
72GG03_F25 4 45 59 -45 45 left 1 5.000000e-01 /Users/lab/Documents/magic_control_exp/stim/8_noeffect.mov 593 25-Sep-2017 13:51:10 2.813338e+02 2.989467e+02 0 0
72GG03_F25 4 46 19 -45 45 left 1 5.000000e-01 /Users/lab/Documents/magic_control_exp/stim/2_noeffect.mov 544 25-Sep-2017 13:51:13 4.124170e+02 -3.680389e+02 0 0
72GG03_F25 4 47 80 -45 -45 left 1 5.000000e-01 /Users/lab/Documents/magic_control_exp/stim/9_noeffect.mov 357 25-Sep-2017 13:51:16 -1.006951e+02 -4.975476e+02 0 0
72GG03_F25 4 48 45 45 45 right 1 5.000000e-01 /Users/lab/Documents/magic_control_exp/stim/6_noeffect.mov 447 25-Sep-2017 13:51:31 3.176368e+01 1.195220e+02 0 1
72GG03_F25 4 49 24 -45 -45 left 1 5.000000e-01 /Users/lab/Documents/magic_control_exp/stim/3_noeffect.mov 330 25-Sep-2017 13:51:34 -2.108469e+02 1.476067e+01 0 0
72GG03_F25 4 50 14 45 -45 right 1 5.000000e-01 /Users/lab/Documents/magic_control_exp/stim/2_noeffect.mov 517 25-Sep-2017 13:51:37 -1.431732e+02 -1.396109e+02 0 0
72GG03_F25 4 51 4 -45 -45 left 1 5.000000e-01 /Users/lab/Documents/magic_control_exp/stim/1_noeffect.mov 460 25-Sep-2017 13:51:40 -4.486110e+02 -3.383517e+02 0 0
72GG03_F25 4 52 16 -45 -45 left 1 5.000000e-01 /Users/lab/Documents/magic_control_exp/stim/2_noeffect.mov 547 25-Sep-2017 13:52:06 1.860877e+02 -4.934477e+02 0 1
72GG03_F25 4 53 10 45 -45 right 1 5.000000e-01 /Users/lab/Documents/magic_control_exp/stim/2_noeffect.mov 473 25-Sep-2017 13:52:09 -8.203030e+01 3.123233e+02 0 0
72GG03_F25 4 54 44 -45 -45 left 1 5.000000e-01 /Users/lab/Documents/magic_control_exp/stim/6_noeffect.mov 375 25-Sep-2017 13:52:11 -8.383781e+01 -3.989205e+02 0 0
72GG03_F25 4 55 72 -45 -45 left 1 5.000000e-01 /Users/lab/Documents/magic_control_exp/stim/9_noeffect.mov 377 25-Sep-2017 13:52:14 -2.047546e+02 2.124709e+02 0 0
72GG03_F25 4 56 13 45 45 right 1 5.000000e-01 /Users/lab/Documents/magic_control_exp/stim/2_noeffect.mov 459 25-Sep-2017 13:52:40 2.231201e+02 -4.781370e+02 0 1
72GG03_F25 4 57 78 45 -45 right 1 5.000000e-01 /Users/lab/Documents/magic_control_exp/stim/9_noeffect.mov 439 25-Sep-2017 13:52:43 2.887464e+01 -2.008319e+02 0 0
72GG03_F25 4 58 46 45 -45 right 1 5.000000e-01 /Users/lab/Documents/magic_control_exp/stim/6_noeffect.mov 560 25-Sep-2017 13:52:46 -4.114544e+02 -1.925595e+02 0 0
72GG03_F25 4 59 22 45 -45 right 1 5.000000e-01 /Users/lab/Documents/magic_control_exp/stim/3_noeffect.mov 560 25-Sep-2017 13:52:49 4.590650e+02 1.759707e+02 0 0
72GG03_F25 4 60 7 -45 45 left 1 5.000000e-01 /Users/lab/Documents/magic_control_exp/stim/1_noeffect.mov 582 25-Sep-2017 13:53:15 -3.385804e+02 1.880570e+02 0 1
72GG03_F25 4 61 47 -45 45 left 1 5.000000e-01 /Users/lab/Documents/magic_control_exp/stim/6_noeffect.mov 405 25-Sep-2017 13:53:18 -2.016061e+02 3.606600e+02 0 0
72GG03_F25 4 62 40 -45 -45 left 1 5.000000e-01 /Users/lab/Documents/magic_control_exp/stim/5_noeffect.mov 404 25-Sep-2017 13:53:21 -1.773177e+02 4.109480e+02 0 0
72GG03_F25 4 63 41 45 45 right 1 5.000000e-01 /Users/lab/Documents/magic_control_exp/stim/6_noeffect.mov 395 25-Sep-2017 13:53:23 2.188793e+02 -3.868143e+02 0 0
72GG03_F25 4 64 29 45 45 right 1 5.000000e-01 /Users/lab/Documents/magic_control_exp/stim/4_noeffect.mov 513 25-Sep-2017 13:53:41 1.075227e+02 -1.927585e+02 0 1
72GG03_F25 4 65 55 -45 45 left 1 5.000000e-01 /Users/lab/Documents/magic_control_exp/stim/7_noeffect.mov 425 25-Sep-2017 13:53:44 -1.546933e+02 -3.834336e+02 0 0
72GG03_F25 4 66 74 45 -45 right 1 5.000000e-01 /Users/lab/Documents/magic_control_exp/stim/9_noeffect.mov 577 25-Sep-2017 13:53:47 -3.214200e+02 -1.160053e+02 0 0
72GG03_F25 4 67 42 45 -45 right 1 5.000000e-01 /Users/lab/Documents/magic_control_exp/stim/6_noeffect.mov 511 25-Sep-2017 13:53:50 -1.528268e+02 -2.293890e+02 0 0
72GG03_F25 4 68 71 -45 45 left 1 5.000000e-01 /Users/lab/Documents/magic_control_exp/stim/9_noeffect.mov 612 25-Sep-2017 13:54:13 -3.304963e+02 -1.108771e+02 0 1
72GG03_F25 4 69 9 45 45 right 1 5.000000e-01 /Users/lab/Documents/magic_control_exp/stim/2_noeffect.mov 441 25-Sep-2017 13:54:15 -2.214755e+02 -2.109520e+02 0 0
72GG03_F25 4 70 53 45 45 right 1 5.000000e-01 /Users/lab/Documents/magic_control_exp/stim/7_noeffect.mov 395 25-Sep-2017 13:54:18 4.832800e+02 5.445220e+01 0 0
72GG03_F25 4 71 73 45 45 right 1 5.000000e-01 /Users/lab/Documents/magic_control_exp/stim/9_noeffect.mov 380 25-Sep-2017 13:54:21 4.147355e+01 4.646762e+02 0 0
72GG03_F25 4 72 32 -45 -45 left 1 5.000000e-01 /Users/lab/Documents/magic_control_exp/stim/4_noeffect.mov 483 25-Sep-2017 13:54:39 9.541366e+01 4.537722e+02 0 1
72GG03_F25 4 73 2 45 -45 right 1 5.000000e-01 /Users/lab/Documents/magic_control_exp/stim/1_noeffect.mov 543 25-Sep-2017 13:54:42 2.001522e+02 -3.976978e+02 0 0
72GG03_F25 4 74 51 -45 45 left 1 5.000000e-01 /Users/lab/Documents/magic_control_exp/stim/7_noeffect.mov 594 25-Sep-2017 13:54:44 -1.091876e+02 -3.872021e+02 0 0
72GG03_F25 4 75 57 45 45 right 1 5.000000e-01 /Users/lab/Documents/magic_control_exp/stim/8_noeffect.mov 406 25-Sep-2017 13:54:47 2.865394e+02 -4.422650e+02 0 0
72GG03_F25 4 76 75 -45 45 left 1 5.000000e-01 /Users/lab/Documents/magic_control_exp/stim/9_noeffect.mov 583 25-Sep-2017 13:55:10 -4.656710e+02 4.428577e+02 0 1
72GG03_F25 4 77 67 -45 45 left 1 5.000000e-01 /Users/lab/Documents/magic_control_exp/stim/9_noeffect.mov 593 25-Sep-2017 13:55:13 3.164230e+02 -3.539787e+02 0 0
72GG03_F25 4 78 48 -45 -45 left 1 5.000000e-01 /Users/lab/Documents/magic_control_exp/stim/6_noeffect.mov 359 25-Sep-2017 13:55:16 -1.609360e+02 1.295295e+02 0 0
72GG03_F25 4 79 52 -45 -45 left 1 5.000000e-01 /Users/lab/Documents/magic_control_exp/stim/7_noeffect.mov 361 25-Sep-2017 13:55:18 -2.153004e+02 3.230252e+02 0 0
72GG03_F25 4 80 27 -45 45 left 1 5.000000e-01 /Users/lab/Documents/magic_control_exp/stim/4_noeffect.mov 544 25-Sep-2017 13:55:21 4.675723e+02 4.050846e+02 0 0
