subject_name subjectNumber iTrial unshuffled_trial targetOrientation flankersOrientation response correct onscreen_stim_duration magicShows rt date time_of_day deltaX deltaY surpriseClip isClipTrial
93AR02_F24 3 1 1 45 45 right 1 5.000000e-01 /Users/lab/Documents/magic_control_exp/stim/1_noeffect.mov 550 27-Sep-2017 11:25:40 -1.373252e+02 1.567622e+02 0 1
93AR02_F24 3 2 52 -45 -45 left 1 5.000000e-01 /Users/lab/Documents/magic_control_exp/stim/7_noeffect.mov 613 27-Sep-2017 11:25:43 -1.803112e+02 -2.972298e+02 0 0
93AR02_F24 3 3 26 45 -45 right 1 5.000000e-01 /Users/lab/Documents/magic_control_exp/stim/4_noeffect.mov 499 27-Sep-2017 11:25:46 -3.120263e+02 7.800611e+01 0 0
93AR02_F24 3 4 15 -45 45 left 1 5.000000e-01 /Users/lab/Documents/magic_control_exp/stim/2_noeffect.mov 596 27-Sep-2017 11:26:12 3.631182e+02 1.980010e+02 0 1
93AR02_F24 3 5 55 -45 45 right 0 5.000000e-01 /Users/lab/Documents/magic_control_exp/stim/7_noeffect.mov 535 27-Sep-2017 11:26:15 -2.412444e+02 -3.058461e+02 0 0
93AR02_F24 3 6 54 45 -45 right 1 5.000000e-01 /Users/lab/Documents/magic_control_exp/stim/7_noeffect.mov 628 27-Sep-2017 11:26:18 2.072659e+02 4.079864e+02 0 0
93AR02_F24 3 7 66 45 -45 right 1 5.000000e-01 /Users/lab/Documents/magic_control_exp/stim/9_noeffect.mov 678 27-Sep-2017 11:26:21 -1.795211e+02 -3.356204e+02 0 0
93AR02_F24 3 8 12 -45 -45 left 1 5.000000e-01 /Users/lab/Documents/magic_control_exp/stim/2_noeffect.mov 696 27-Sep-2017 11:26:47 2.708497e+02 4.218899e+02 0 1
93AR02_F24 3 9 32 -45 -45 left 1 5.000000e-01 /Users/lab/Documents/magic_control_exp/stim/4_noeffect.mov 425 27-Sep-2017 11:26:50 -2.332481e+02 3.752186e+02 0 0
93AR02_F24 3 10 38 45 -45 right 1 5.000000e-01 /Users/lab/Documents/magic_control_exp/stim/5_noeffect.mov 544 27-Sep-2017 11:26:53 3.145695e+02 2.194265e+02 0 0
93AR02_F24 3 11 51 -45 45 left 1 5.000000e-01 /Users/lab/Documents/magic_control_exp/stim/7_noeffect.mov 600 27-Sep-2017 11:26:56 -1.767221e+02 -1.349857e+02 0 0
93AR02_F24 3 12 80 -45 -45 left 1 5.000000e-01 /Users/lab/Documents/magic_control_exp/stim/9_noeffect.mov 630 27-Sep-2017 11:27:19 1.411998e+02 -2.246644e+01 0 1
93AR02_F24 3 13 47 -45 45 left 1 5.000000e-01 /Users/lab/Documents/magic_control_exp/stim/6_noeffect.mov 661 27-Sep-2017 11:27:22 -6.221837e+01 4.217250e+02 0 0
93AR02_F24 3 14 27 -45 45 left 1 5.000000e-01 /Users/lab/Documents/magic_control_exp/stim/4_noeffect.mov 491 27-Sep-2017 11:27:25 1.480556e+02 -3.146669e+00 0 0
93AR02_F24 3 15 3 -45 45 left 1 5.000000e-01 /Users/lab/Documents/magic_control_exp/stim/1_noeffect.mov 441 27-Sep-2017 11:27:27 4.079026e+01 -2.582601e+02 0 0
93AR02_F24 3 16 56 -45 -45 left 1 5.000000e-01 /Users/lab/Documents/magic_control_exp/stim/7_noeffect.mov 546 27-Sep-2017 11:27:47 -6.143724e+01 -1.097374e+02 0 1
93AR02_F24 3 17 45 45 45 right 1 5.000000e-01 /Users/lab/Documents/magic_control_exp/stim/6_noeffect.mov 618 27-Sep-2017 11:27:50 -2.394578e+02 2.745175e+02 0 0
93AR02_F24 3 18 62 45 -45 right 1 5.000000e-01 /Users/lab/Documents/magic_control_exp/stim/8_noeffect.mov 577 27-Sep-2017 11:27:53 -6.200762e+01 -3.514161e+02 0 0
93AR02_F24 3 19 60 -45 -45 left 1 5.000000e-01 /Users/lab/Documents/magic_control_exp/stim/8_noeffect.mov 425 27-Sep-2017 11:27:56 -2.694567e+02 -4.589138e+02 0 0
93AR02_F24 3 20 5 45 45 right 1 5.000000e-01 /Users/lab/Documents/magic_control_exp/stim/1_noeffect.mov 613 27-Sep-2017 11:28:22 2.744111e+02 -3.730107e+02 0 1
93AR02_F24 3 21 13 45 45 right 1 5.000000e-01 /Users/lab/Documents/magic_control_exp/stim/2_noeffect.mov 510 27-Sep-2017 11:28:25 1.266335e+02 5.589109e+01 0 0
93AR02_F24 3 22 29 45 45 right 1 5.000000e-01 /Users/lab/Documents/magic_control_exp/stim/4_noeffect.mov 450 27-Sep-2017 11:28:28 2.884292e+02 4.534916e+02 0 0
93AR02_F24 3 23 71 -45 45 left 1 5.000000e-01 /Users/lab/Documents/magic_control_exp/stim/9_noeffect.mov 527 27-Sep-2017 11:28:31 4.603714e+02 -2.900841e+02 0 0
93AR02_F24 3 24 61 45 45 right 1 5.000000e-01 /Users/lab/Documents/magic_control_exp/stim/8_noeffect.mov 469 27-Sep-2017 11:28:53 4.636872e+02 2.200534e+02 0 1
93AR02_F24 3 25 19 -45 45 left 1 5.000000e-01 /Users/lab/Documents/magic_control_exp/stim/2_noeffect.mov 527 27-Sep-2017 11:28:56 3.481781e+01 -4.237688e+02 0 0
93AR02_F24 3 26 53 45 45 right 1 5.000000e-01 /Users/lab/Documents/magic_control_exp/stim/7_noeffect.mov 651 27-Sep-2017 11:28:58 -2.036370e+02 1.327660e+02 0 0
93AR02_F24 3 27 2 45 -45 right 1 5.000000e-01 /Users/lab/Documents/magic_control_exp/stim/1_noeffect.mov 577 27-Sep-2017 11:29:01 1.811660e+02 3.227234e+02 0 0
93AR02_F24 3 28 67 -45 45 left 1 5.000000e-01 /Users/lab/Documents/magic_control_exp/stim/9_noeffect.mov 630 27-Sep-2017 11:29:24 -2.975822e+02 -3.156896e+02 0 1
93AR02_F24 3 29 22 45 -45 right 1 5.000000e-01 /Users/lab/Documents/magic_control_exp/stim/3_noeffect.mov 527 27-Sep-2017 11:29:27 1.871461e+02 9.583298e+01 0 0
93AR02_F24 3 30 69 45 45 right 1 5.000000e-01 /Users/lab/Documents/magic_control_exp/stim/9_noeffect.mov 448 27-Sep-2017 11:29:30 -1.948092e+02 3.858870e+02 0 0
93AR02_F24 3 31 37 45 45 right 1 5.000000e-01 /Users/lab/Documents/magic_control_exp/stim/5_noeffect.mov 577 27-Sep-2017 11:29:33 -4.856445e+02 2.313688e+02 0 0
93AR02_F24 3 32 46 45 -45 right 1 5.000000e-01 /Users/lab/Documents/magic_control_exp/stim/6_noeffect.mov 762 27-Sep-2017 11:29:49 -3.498025e+02 4.830304e+02 0 1
93AR02_F24 3 33 42 45 -45 right 1 5.000000e-01 /Users/lab/Documents/magic_control_exp/stim/6_noeffect.mov 527 27-Sep-2017 11:29:51 2.570777e+02 -3.680684e+01 0 0
93AR02_F24 3 34 9 45 45 right 1 5.000000e-01 /Users/lab/Documents/magic_control_exp/stim/2_noeffect.mov 499 27-Sep-2017 11:29:54 -4.172854e+02 1.926007e+02 0 0
93AR02_F24 3 35 23 -45 45 left 1 5.000000e-01 /Users/lab/Documents/magic_control_exp/stim/3_noeffect.mov 594 27-Sep-2017 11:29:57 -4.611703e+02 -4.332580e+02 0 0
93AR02_F24 3 36 79 -45 45 left 1 5.000000e-01 /Users/lab/Documents/magic_control_exp/stim/9_noeffect.mov 533 27-Sep-2017 11:30:20 -3.651929e+01 4.700497e+02 0 1
93AR02_F24 3 37 10 45 -45 right 1 5.000000e-01 /Users/lab/Documents/magic_control_exp/stim/2_noeffect.mov 542 27-Sep-2017 11:30:23 3.962140e+02 2.759246e+02 0 0
93AR02_F24 3 38 77 45 45 right 1 5.000000e-01 /Users/lab/Documents/magic_control_exp/stim/9_noeffect.mov 510 27-Sep-2017 11:30:26 -4.262947e+01 4.284908e+02 0 0
93AR02_F24 3 39 65 45 45 right 1 5.000000e-01 /Users/lab/Documents/magic_control_exp/stim/9_noeffect.mov 543 27-Sep-2017 11:30:28 2.612159e+01 -4.656392e+02 0 0
93AR02_F24 3 40 30 45 -45 right 1 5.000000e-01 /Users/lab/Documents/magic_control_exp/stim/4_noeffect.mov 546 27-Sep-2017 11:30:46 -1.566548e+02 1.334351e+01 0 1
93AR02_F24 3 41 20 -45 -45 left 1 5.000000e-01 /Users/lab/Documents/magic_control_exp/stim/2_noeffect.mov 415 27-Sep-2017 11:30:49 -4.060131e+02 2.382743e+02 0 0
93AR02_F24 3 42 50 45 -45 right 1 5.000000e-01 /Users/lab/Documents/magic_control_exp/stim/7_noeffect.mov 544 27-Sep-2017 11:30:52 -2.876611e+02 -3.404787e+02 0 0
93AR02_F24 3 43 40 -45 -45 left 1 5.000000e-01 /Users/lab/Documents/magic_control_exp/stim/5_noeffect.mov 479 27-Sep-2017 11:30:55 -3.133141e+02 3.412430e+02 0 0
93AR02_F24 3 44 39 -45 45 left 1 5.000000e-01 /Users/lab/Documents/magic_control_exp/stim/5_noeffect.mov 681 27-Sep-2017 11:31:12 1.541813e+02 4.851402e+02 0 1
93AR02_F24 3 45 33 45 45 right 1 5.000000e-01 /Users/lab/Documents/magic_control_exp/stim/5_noeffect.mov 371 27-Sep-2017 11:31:15 1.223965e+02 3.268532e+01 0 0
93AR02_F24 3 46 36 -45 -45 left 1 5.000000e-01 /Users/lab/Documents/magic_control_exp/stim/5_noeffect.mov 449 27-Sep-2017 11:31:18 1.364543e+02 -4.263997e+02 0 0
93AR02_F24 3 47 16 -45 -45 left 1 5.000000e-01 /Users/lab/Documents/magic_control_exp/stim/2_noeffect.mov 457 27-Sep-2017 11:31:20 4.910848e+02 1.863591e+02 0 0
93AR02_F24 3 48 43 -45 45 left 1 5.000000e-01 /Users/lab/Documents/magic_control_exp/stim/6_noeffect.mov 548 27-Sep-2017 11:31:36 4.592167e+02 -3.131749e+02 0 1
93AR02_F24 3 49 44 -45 -45 left 1 5.000000e-01 /Users/lab/Documents/magic_control_exp/stim/6_noeffect.mov 367 27-Sep-2017 11:31:39 -4.045813e+02 -1.852845e+02 0 0
93AR02_F24 3 50 78 45 -45 left 0 5.000000e-01 /Users/lab/Documents/magic_control_exp/stim/9_noeffect.mov 424 27-Sep-2017 11:31:43 -4.565123e+02 3.740936e+02 0 0
93AR02_F24 3 51 31 -45 45 left 1 5.000000e-01 /Users/lab/Documents/magic_control_exp/stim/4_noeffect.mov 511 27-Sep-2017 11:31:45 3.725790e+02 5.479168e+00 0 0
93AR02_F24 3 52 11 -45 45 left 1 5.000000e-01 /Users/lab/Documents/magic_control_exp/stim/2_noeffect.mov 712 27-Sep-2017 11:32:12 9.162834e+01 -2.008371e+02 0 1
93AR02_F24 3 53 75 -45 45 left 1 5.000000e-01 /Users/lab/Documents/magic_control_exp/stim/9_noeffect.mov 544 27-Sep-2017 11:32:14 3.579538e+02 2.936417e+02 0 0
93AR02_F24 3 54 18 45 -45 right 1 5.000000e-01 /Users/lab/Documents/magic_control_exp/stim/2_noeffect.mov 560 27-Sep-2017 11:32:17 2.363776e+02 -3.870903e+02 0 0
93AR02_F24 3 55 35 -45 45 left 1 5.000000e-01 /Users/lab/Documents/magic_control_exp/stim/5_noeffect.mov 479 27-Sep-2017 11:32:20 -3.558350e+02 -4.436015e+02 0 0
93AR02_F24 3 56 21 45 45 right 1 5.000000e-01 /Users/lab/Documents/magic_control_exp/stim/3_noeffect.mov 662 27-Sep-2017 11:32:39 1.716778e+02 2.153077e+02 0 1
93AR02_F24 3 57 68 -45 -45 left 1 5.000000e-01 /Users/lab/Documents/magic_control_exp/stim/9_noeffect.mov 437 27-Sep-2017 11:32:42 -6.877944e+01 3.819397e+02 0 0
93AR02_F24 3 58 70 45 -45 right 1 5.000000e-01 /Users/lab/Documents/magic_control_exp/stim/9_noeffect.mov 594 27-Sep-2017 11:32:45 2.037362e+02 3.705516e+01 0 0
93AR02_F24 3 59 4 -45 -45 left 1 5.000000e-01 /Users/lab/Documents/magic_control_exp/stim/1_noeffect.mov 611 27-Sep-2017 11:32:48 4.861720e+02 1.179787e+02 0 0
93AR02_F24 3 60 64 -45 -45 left 1 5.000000e-01 /Users/lab/Documents/magic_control_exp/stim/8_noeffect.mov 583 27-Sep-2017 11:33:10 3.494820e+02 -1.242524e+02 0 1
93AR02_F24 3 61 14 45 -45 right 1 5.000000e-01 /Users/lab/Documents/magic_control_exp/stim/2_noeffect.mov 577 27-Sep-2017 11:33:13 -1.979593e+02 -2.271454e+02 0 0
93AR02_F24 3 62 17 45 45 right 1 5.000000e-01 /Users/lab/Documents/magic_control_exp/stim/2_noeffect.mov 434 27-Sep-2017 11:33:16 4.354961e+02 3.295559e+01 0 0
93AR02_F24 3 63 8 -45 -45 left 1 5.000000e-01 /Users/lab/Documents/magic_control_exp/stim/1_noeffect.mov 437 27-Sep-2017 11:33:18 -4.786003e+02 2.919841e+02 0 0
93AR02_F24 3 64 58 45 -45 right 1 5.000000e-01 /Users/lab/Documents/magic_control_exp/stim/8_noeffect.mov 614 27-Sep-2017 11:33:41 -4.733242e+02 1.150504e+02 0 1
93AR02_F24 3 65 6 45 -45 right 1 5.000000e-01 /Users/lab/Documents/magic_control_exp/stim/1_noeffect.mov 559 27-Sep-2017 11:33:43 -3.593093e+02 -4.385613e+02 0 0
93AR02_F24 3 66 76 -45 -45 left 1 5.000000e-01 /Users/lab/Documents/magic_control_exp/stim/9_noeffect.mov 484 27-Sep-2017 11:33:46 -2.526443e+02 3.188235e+02 0 0
93AR02_F24 3 67 49 45 45 right 1 5.000000e-01 /Users/lab/Documents/magic_control_exp/stim/7_noeffect.mov 483 27-Sep-2017 11:33:49 4.195092e+02 1.968533e+02 0 0
93AR02_F24 3 68 34 45 -45 right 1 5.000000e-01 /Users/lab/Documents/magic_control_exp/stim/5_noeffect.mov 665 27-Sep-2017 11:34:06 1.809543e+02 -8.312782e+01 0 1
93AR02_F24 3 69 48 -45 -45 left 1 5.000000e-01 /Users/lab/Documents/magic_control_exp/stim/6_noeffect.mov 469 27-Sep-2017 11:34:09 1.119879e+02 4.176014e+01 0 0
93AR02_F24 3 70 57 45 45 right 1 5.000000e-01 /Users/lab/Documents/magic_control_exp/stim/8_noeffect.mov 458 27-Sep-2017 11:34:12 -2.914586e+02 -2.476957e+00 0 0
93AR02_F24 3 71 28 -45 -45 left 1 5.000000e-01 /Users/lab/Documents/magic_control_exp/stim/4_noeffect.mov 388 27-Sep-2017 11:34:15 -2.250483e+02 -4.274408e+02 0 0
93AR02_F24 3 72 41 45 45 right 1 5.000000e-01 /Users/lab/Documents/magic_control_exp/stim/6_noeffect.mov 597 27-Sep-2017 11:34:30 1.861148e+02 2.714774e+02 0 1
93AR02_F24 3 73 74 45 -45 right 1 5.000000e-01 /Users/lab/Documents/magic_control_exp/stim/9_noeffect.mov 643 27-Sep-2017 11:34:33 -4.179710e+02 -3.448495e+02 0 0
93AR02_F24 3 74 25 45 45 right 1 5.000000e-01 /Users/lab/Documents/magic_control_exp/stim/4_noeffect.mov 468 27-Sep-2017 11:34:36 -6.551659e+01 -4.905591e+02 0 0
93AR02_F24 3 75 59 -45 45 left 1 5.000000e-01 /Users/lab/Documents/magic_control_exp/stim/8_noeffect.mov 420 27-Sep-2017 11:34:39 -6.358790e+01 -2.944139e+02 0 0
93AR02_F24 3 76 63 -45 45 left 1 5.000000e-01 /Users/lab/Documents/magic_control_exp/stim/8_noeffect.mov 424 27-Sep-2017 11:35:01 1.989354e+02 -1.089875e+02 0 1
93AR02_F24 3 77 72 -45 -45 left 1 5.000000e-01 /Users/lab/Documents/magic_control_exp/stim/9_noeffect.mov 384 27-Sep-2017 11:35:03 2.377908e+02 -4.531509e+02 0 0
93AR02_F24 3 78 7 -45 45 right 0 5.000000e-01 /Users/lab/Documents/magic_control_exp/stim/1_noeffect.mov 392 27-Sep-2017 11:35:06 1.793994e+01 1.406298e+02 0 0
93AR02_F24 3 79 73 45 45 right 1 5.000000e-01 /Users/lab/Documents/magic_control_exp/stim/9_noeffect.mov 559 27-Sep-2017 11:35:09 -4.706193e+02 -4.902597e+02 0 0
93AR02_F24 3 80 24 -45 -45 left 1 5.000000e-01 /Users/lab/Documents/magic_control_exp/stim/3_noeffect.mov 458 27-Sep-2017 11:35:12 4.463317e+02 -4.334954e+02 0 0
