subject_name subjectNumber iTrial unshuffled_trial targetOrientation flankersOrientation response correct onscreen_stim_duration magicShows rt date time_of_day deltaX deltaY surpriseClip isClipTrial
al_ca_06_08_93_950_f 74 1 40 -45 -45 left 1 5.000000e-01 /Users/lab/Documents/experiments/2019/surprise_5/stim/5_noeffect.mov 642 10-Oct-2019 12:04:16 3.658080e+01 -4.197782e+02 0 1
al_ca_06_08_93_950_f 74 2 64 -45 -45 right 0 5.000000e-01 /Users/lab/Documents/experiments/2019/surprise_5/stim/8_noeffect.mov 539 10-Oct-2019 12:04:19 4.133783e+02 -3.515694e+02 0 0
al_ca_06_08_93_950_f 74 3 22 45 -45 right 1 5.000000e-01 /Users/lab/Documents/experiments/2019/surprise_5/stim/3_noeffect.mov 579 10-Oct-2019 12:04:22 2.498026e+02 2.279745e+02 0 0
al_ca_06_08_93_950_f 74 4 63 -45 45 left 1 5.000000e-01 /Users/lab/Documents/experiments/2019/surprise_5/stim/8_noeffect.mov 575 10-Oct-2019 12:04:43 2.076437e+02 -3.455890e+02 0 1
al_ca_06_08_93_950_f 74 5 74 45 -45 right 1 5.000000e-01 /Users/lab/Documents/experiments/2019/surprise_5/stim/10_noeffect.mov 593 10-Oct-2019 12:04:46 4.456301e+02 3.258073e+02 0 0
al_ca_06_08_93_950_f 74 6 15 -45 45 left 1 5.000000e-01 /Users/lab/Documents/experiments/2019/surprise_5/stim/2_noeffect.mov 449 10-Oct-2019 12:04:49 -4.376503e+01 -5.451707e+01 0 0
al_ca_06_08_93_950_f 74 7 17 45 45 right 1 5.000000e-01 /Users/lab/Documents/experiments/2019/surprise_5/stim/2_noeffect.mov 646 10-Oct-2019 12:04:52 4.183858e+02 3.018945e+02 0 0
al_ca_06_08_93_950_f 74 8 45 45 45 right 1 5.000000e-01 /Users/lab/Documents/experiments/2019/surprise_5/stim/6_noeffect.mov 612 10-Oct-2019 12:05:06 -1.318435e+02 -2.348049e+02 0 1
al_ca_06_08_93_950_f 74 9 41 45 45 right 1 5.000000e-01 /Users/lab/Documents/experiments/2019/surprise_5/stim/6_noeffect.mov 412 10-Oct-2019 12:05:09 -1.169817e+02 5.896503e+01 0 0
al_ca_06_08_93_950_f 74 10 25 45 45 right 1 5.000000e-01 /Users/lab/Documents/experiments/2019/surprise_5/stim/4_noeffect.mov 451 10-Oct-2019 12:05:12 -2.278714e+02 2.304926e+02 0 0
al_ca_06_08_93_950_f 74 11 10 45 -45 right 1 5.000000e-01 /Users/lab/Documents/experiments/2019/surprise_5/stim/2_noeffect.mov 555 10-Oct-2019 12:05:15 1.060254e+02 3.376068e+02 0 0
al_ca_06_08_93_950_f 74 12 66 45 -45 right 1 5.000000e-01 /Users/lab/Documents/experiments/2019/surprise_5/stim/9_noeffect.mov 562 10-Oct-2019 12:05:36 -1.422832e+02 -3.615276e+02 0 1
al_ca_06_08_93_950_f 74 13 26 45 -45 left 0 5.000000e-01 /Users/lab/Documents/experiments/2019/surprise_5/stim/4_noeffect.mov 438 10-Oct-2019 12:05:39 -4.065851e+02 -4.107900e+02 0 0
al_ca_06_08_93_950_f 74 14 47 -45 45 left 1 5.000000e-01 /Users/lab/Documents/experiments/2019/surprise_5/stim/6_noeffect.mov 460 10-Oct-2019 12:05:42 -3.655229e+02 -2.357117e+02 0 0
al_ca_06_08_93_950_f 74 15 19 -45 45 left 1 5.000000e-01 /Users/lab/Documents/experiments/2019/surprise_5/stim/2_noeffect.mov 664 10-Oct-2019 12:05:45 -3.629437e+02 -3.885287e+02 0 0
al_ca_06_08_93_950_f 74 16 77 45 45 right 1 5.000000e-01 /Users/lab/Documents/experiments/2019/surprise_5/stim/10_noeffect.mov 541 10-Oct-2019 12:05:59 -3.579251e+02 -4.326769e+02 0 1
al_ca_06_08_93_950_f 74 17 68 -45 -45 left 1 5.000000e-01 /Users/lab/Documents/experiments/2019/surprise_5/stim/9_noeffect.mov 708 10-Oct-2019 12:06:02 -2.707786e+02 1.531250e+02 0 0
al_ca_06_08_93_950_f 74 18 11 -45 45 left 1 5.000000e-01 /Users/lab/Documents/experiments/2019/surprise_5/stim/2_noeffect.mov 529 10-Oct-2019 12:06:05 -4.577979e+02 -1.346357e+02 0 0
al_ca_06_08_93_950_f 74 19 56 -45 -45 left 1 5.000000e-01 /Users/lab/Documents/experiments/2019/surprise_5/stim/7_noeffect.mov 646 10-Oct-2019 12:06:08 -2.232291e+02 7.078118e+00 0 0
al_ca_06_08_93_950_f 74 20 1 45 45 right 1 5.000000e-01 /Users/lab/Documents/experiments/2019/surprise_5/stim/1_noeffect.mov 760 10-Oct-2019 12:06:33 2.351227e+02 4.183817e+02 0 1
al_ca_06_08_93_950_f 74 21 23 -45 45 left 1 5.000000e-01 /Users/lab/Documents/experiments/2019/surprise_5/stim/3_noeffect.mov 448 10-Oct-2019 12:06:36 4.665346e+02 3.678649e+02 0 0
al_ca_06_08_93_950_f 74 22 7 -45 45 left 1 5.000000e-01 /Users/lab/Documents/experiments/2019/surprise_5/stim/1_noeffect.mov 472 10-Oct-2019 12:06:39 3.941673e+02 5.571499e+01 0 0
al_ca_06_08_93_950_f 74 23 76 -45 -45 left 1 5.000000e-01 /Users/lab/Documents/experiments/2019/surprise_5/stim/10_noeffect.mov 448 10-Oct-2019 12:06:42 -1.034978e+02 2.045822e+02 0 0
al_ca_06_08_93_950_f 74 24 20 -45 -45 left 1 5.000000e-01 /Users/lab/Documents/experiments/2019/surprise_5/stim/2_noeffect.mov 608 10-Oct-2019 12:07:06 -3.975415e+02 1.813530e+02 0 1
al_ca_06_08_93_950_f 74 25 35 -45 45 left 1 5.000000e-01 /Users/lab/Documents/experiments/2019/surprise_5/stim/5_noeffect.mov 417 10-Oct-2019 12:07:09 1.325360e+02 -6.859831e+01 0 0
al_ca_06_08_93_950_f 74 26 13 45 45 right 1 5.000000e-01 /Users/lab/Documents/experiments/2019/surprise_5/stim/2_noeffect.mov 562 10-Oct-2019 12:07:12 1.200306e+02 4.444746e+02 0 0
al_ca_06_08_93_950_f 74 27 16 -45 -45 left 1 5.000000e-01 /Users/lab/Documents/experiments/2019/surprise_5/stim/2_noeffect.mov 348 10-Oct-2019 12:07:15 -7.870209e+01 -1.288854e+02 0 0
al_ca_06_08_93_950_f 74 28 31 -45 45 left 1 5.000000e-01 /Users/lab/Documents/experiments/2019/surprise_5/stim/4_noeffect.mov 528 10-Oct-2019 12:07:32 -2.419090e+02 2.566590e+01 0 1
al_ca_06_08_93_950_f 74 29 73 45 45 right 1 5.000000e-01 /Users/lab/Documents/experiments/2019/surprise_5/stim/10_noeffect.mov 454 10-Oct-2019 12:07:34 -2.156899e+02 -5.586766e+01 0 0
al_ca_06_08_93_950_f 74 30 57 45 45 left 0 5.000000e-01 /Users/lab/Documents/experiments/2019/surprise_5/stim/8_noeffect.mov 509 10-Oct-2019 12:07:37 4.414547e+02 -2.367462e+01 0 0
al_ca_06_08_93_950_f 74 31 48 -45 -45 left 1 5.000000e-01 /Users/lab/Documents/experiments/2019/surprise_5/stim/6_noeffect.mov 630 10-Oct-2019 12:07:40 2.373176e+02 -4.771229e+01 0 0
al_ca_06_08_93_950_f 74 32 24 -45 -45 left 1 5.000000e-01 /Users/lab/Documents/experiments/2019/surprise_5/stim/3_noeffect.mov 543 10-Oct-2019 12:07:58 -2.792866e+02 -2.975707e+02 0 1
al_ca_06_08_93_950_f 74 33 36 -45 -45 left 1 5.000000e-01 /Users/lab/Documents/experiments/2019/surprise_5/stim/5_noeffect.mov 445 10-Oct-2019 12:08:01 6.684942e+01 2.643706e+02 0 0
al_ca_06_08_93_950_f 74 34 80 -45 -45 left 1 5.000000e-01 /Users/lab/Documents/experiments/2019/surprise_5/stim/10_noeffect.mov 572 10-Oct-2019 12:08:04 1.689265e+02 -4.920958e+02 0 0
al_ca_06_08_93_950_f 74 35 55 -45 45 left 1 5.000000e-01 /Users/lab/Documents/experiments/2019/surprise_5/stim/7_noeffect.mov 401 10-Oct-2019 12:08:07 1.231171e+02 3.577984e+02 0 0
al_ca_06_08_93_950_f 74 36 14 45 -45 right 1 5.000000e-01 /Users/lab/Documents/experiments/2019/surprise_5/stim/2_noeffect.mov 595 10-Oct-2019 12:08:31 -3.070557e+02 -4.882347e+02 0 1
al_ca_06_08_93_950_f 74 37 29 45 45 right 1 5.000000e-01 /Users/lab/Documents/experiments/2019/surprise_5/stim/4_noeffect.mov 522 10-Oct-2019 12:08:34 -4.106094e+02 -2.929807e+02 0 0
al_ca_06_08_93_950_f 74 38 51 -45 45 left 1 5.000000e-01 /Users/lab/Documents/experiments/2019/surprise_5/stim/7_noeffect.mov 494 10-Oct-2019 12:08:37 2.814610e+01 3.672666e+02 0 0
al_ca_06_08_93_950_f 74 39 58 45 -45 right 1 5.000000e-01 /Users/lab/Documents/experiments/2019/surprise_5/stim/8_noeffect.mov 445 10-Oct-2019 12:08:40 -1.516168e+02 -4.834612e+02 0 0
al_ca_06_08_93_950_f 74 40 62 45 -45 right 1 5.000000e-01 /Users/lab/Documents/experiments/2019/surprise_5/stim/8_noeffect.mov 575 10-Oct-2019 12:09:01 3.695511e+02 4.255897e+02 0 1
al_ca_06_08_93_950_f 74 41 67 -45 45 left 1 5.000000e-01 /Users/lab/Documents/experiments/2019/surprise_5/stim/9_noeffect.mov 476 10-Oct-2019 12:09:03 -2.384247e+02 -1.544710e+02 0 0
al_ca_06_08_93_950_f 74 42 28 -45 -45 left 1 5.000000e-01 /Users/lab/Documents/experiments/2019/surprise_5/stim/4_noeffect.mov 459 10-Oct-2019 12:09:06 4.436676e+01 3.922023e+02 0 0
al_ca_06_08_93_950_f 74 43 59 -45 45 left 1 5.000000e-01 /Users/lab/Documents/experiments/2019/surprise_5/stim/8_noeffect.mov 526 10-Oct-2019 12:09:09 4.479631e+02 -2.846563e+02 0 0
al_ca_06_08_93_950_f 74 44 6 45 -45 right 1 5.000000e-01 /Users/lab/Documents/experiments/2019/surprise_5/stim/1_noeffect.mov 579 10-Oct-2019 12:09:34 -3.120504e+02 1.226184e+02 0 1
al_ca_06_08_93_950_f 74 45 33 45 45 right 1 5.000000e-01 /Users/lab/Documents/experiments/2019/surprise_5/stim/5_noeffect.mov 409 10-Oct-2019 12:09:37 -2.533188e+02 8.059788e+00 0 0
al_ca_06_08_93_950_f 74 46 71 -45 45 left 1 5.000000e-01 /Users/lab/Documents/experiments/2019/surprise_5/stim/9_noeffect.mov 476 10-Oct-2019 12:09:39 2.050719e+02 4.338492e+02 0 0
al_ca_06_08_93_950_f 74 47 43 -45 45 left 1 5.000000e-01 /Users/lab/Documents/experiments/2019/surprise_5/stim/6_noeffect.mov 409 10-Oct-2019 12:09:42 2.641972e+02 4.119107e+02 0 0
al_ca_06_08_93_950_f 74 48 37 45 45 right 1 5.000000e-01 /Users/lab/Documents/experiments/2019/surprise_5/stim/5_noeffect.mov 625 10-Oct-2019 12:09:59 5.519214e+00 2.005774e+02 0 1
al_ca_06_08_93_950_f 74 49 39 -45 45 left 1 5.000000e-01 /Users/lab/Documents/experiments/2019/surprise_5/stim/5_noeffect.mov 493 10-Oct-2019 12:10:01 1.846091e+02 -4.422416e+02 0 0
al_ca_06_08_93_950_f 74 50 54 45 -45 right 1 5.000000e-01 /Users/lab/Documents/experiments/2019/surprise_5/stim/7_noeffect.mov 483 10-Oct-2019 12:10:04 -3.323001e+02 4.247286e+01 0 0
al_ca_06_08_93_950_f 74 51 42 45 -45 right 1 5.000000e-01 /Users/lab/Documents/experiments/2019/surprise_5/stim/6_noeffect.mov 387 10-Oct-2019 12:10:07 1.246038e+02 -3.636882e+02 0 0
al_ca_06_08_93_950_f 74 52 78 45 -45 right 1 5.000000e-01 /Users/lab/Documents/experiments/2019/surprise_5/stim/10_noeffect.mov 529 10-Oct-2019 12:10:21 -3.693522e+02 -8.052849e+01 0 1
al_ca_06_08_93_950_f 74 53 79 -45 45 left 1 5.000000e-01 /Users/lab/Documents/experiments/2019/surprise_5/stim/10_noeffect.mov 415 10-Oct-2019 12:10:24 4.204304e+01 2.448489e+02 0 0
al_ca_06_08_93_950_f 74 54 5 45 45 right 1 5.000000e-01 /Users/lab/Documents/experiments/2019/surprise_5/stim/1_noeffect.mov 447 10-Oct-2019 12:10:27 -4.812289e+02 4.600679e+02 0 0
al_ca_06_08_93_950_f 74 55 72 -45 -45 left 1 5.000000e-01 /Users/lab/Documents/experiments/2019/surprise_5/stim/9_noeffect.mov 368 10-Oct-2019 12:10:29 8.404076e+01 -7.185530e+01 0 0
al_ca_06_08_93_950_f 74 56 2 45 -45 right 1 5.000000e-01 /Users/lab/Documents/experiments/2019/surprise_5/stim/1_noeffect.mov 544 10-Oct-2019 12:10:54 -1.683183e+01 -2.756937e+02 0 1
al_ca_06_08_93_950_f 74 57 4 -45 -45 left 1 5.000000e-01 /Users/lab/Documents/experiments/2019/surprise_5/stim/1_noeffect.mov 441 10-Oct-2019 12:10:57 4.396974e+02 -4.532476e+02 0 0
al_ca_06_08_93_950_f 74 58 46 45 -45 right 1 5.000000e-01 /Users/lab/Documents/experiments/2019/surprise_5/stim/6_noeffect.mov 527 10-Oct-2019 12:11:00 -2.519871e+02 -3.356849e+02 0 0
al_ca_06_08_93_950_f 74 59 9 45 45 right 1 5.000000e-01 /Users/lab/Documents/experiments/2019/surprise_5/stim/2_noeffect.mov 382 10-Oct-2019 12:11:02 3.060639e+02 -4.435606e+02 0 0
al_ca_06_08_93_950_f 74 60 70 45 -45 right 1 5.000000e-01 /Users/lab/Documents/experiments/2019/surprise_5/stim/9_noeffect.mov 577 10-Oct-2019 12:11:24 -2.339803e+02 3.773450e+02 0 1
al_ca_06_08_93_950_f 74 61 49 45 45 right 1 5.000000e-01 /Users/lab/Documents/experiments/2019/surprise_5/stim/7_noeffect.mov 448 10-Oct-2019 12:11:27 4.217246e+02 1.484011e+02 0 0
al_ca_06_08_93_950_f 74 62 61 45 45 right 1 5.000000e-01 /Users/lab/Documents/experiments/2019/surprise_5/stim/8_noeffect.mov 415 10-Oct-2019 12:11:30 3.723756e+02 -1.449021e+02 0 0
al_ca_06_08_93_950_f 74 63 44 -45 -45 left 1 5.000000e-01 /Users/lab/Documents/experiments/2019/surprise_5/stim/6_noeffect.mov 452 10-Oct-2019 12:11:32 8.377513e+01 1.691045e+02 0 0
al_ca_06_08_93_950_f 74 64 60 -45 -45 left 1 5.000000e-01 /Users/lab/Documents/experiments/2019/surprise_5/stim/8_noeffect.mov 845 10-Oct-2019 12:11:53 -6.760808e+01 -3.739815e+02 0 1
al_ca_06_08_93_950_f 74 65 69 45 45 right 1 5.000000e-01 /Users/lab/Documents/experiments/2019/surprise_5/stim/9_noeffect.mov 578 10-Oct-2019 12:11:56 4.928406e+01 2.811424e+02 0 0
al_ca_06_08_93_950_f 74 66 32 -45 -45 left 1 5.000000e-01 /Users/lab/Documents/experiments/2019/surprise_5/stim/4_noeffect.mov 530 10-Oct-2019 12:11:59 4.399659e+02 -4.089055e+02 0 0
al_ca_06_08_93_950_f 74 67 38 45 -45 right 1 5.000000e-01 /Users/lab/Documents/experiments/2019/surprise_5/stim/5_noeffect.mov 612 10-Oct-2019 12:12:02 4.190724e+01 3.633915e+02 0 0
al_ca_06_08_93_950_f 74 68 3 -45 45 left 1 5.000000e-01 /Users/lab/Documents/experiments/2019/surprise_5/stim/1_noeffect.mov 544 10-Oct-2019 12:12:27 2.972025e+02 1.760118e+02 0 1
al_ca_06_08_93_950_f 74 69 34 45 -45 right 1 5.000000e-01 /Users/lab/Documents/experiments/2019/surprise_5/stim/5_noeffect.mov 477 10-Oct-2019 12:12:30 -3.410639e+02 -2.193095e+01 0 0
al_ca_06_08_93_950_f 74 70 27 -45 45 left 1 5.000000e-01 /Users/lab/Documents/experiments/2019/surprise_5/stim/4_noeffect.mov 494 10-Oct-2019 12:12:32 -4.191024e+02 -6.917472e+01 0 0
al_ca_06_08_93_950_f 74 71 53 45 45 left 0 5.000000e-01 /Users/lab/Documents/experiments/2019/surprise_5/stim/7_noeffect.mov 744 10-Oct-2019 12:12:36 8.382166e+01 2.041850e+02 0 0
al_ca_06_08_93_950_f 74 72 30 45 -45 right 1 5.000000e-01 /Users/lab/Documents/experiments/2019/surprise_5/stim/4_noeffect.mov 558 10-Oct-2019 12:12:53 3.518540e+02 -2.980464e+02 0 1
al_ca_06_08_93_950_f 74 73 65 45 45 right 1 5.000000e-01 /Users/lab/Documents/experiments/2019/surprise_5/stim/9_noeffect.mov 457 10-Oct-2019 12:12:55 2.779917e+01 4.211593e+02 0 0
al_ca_06_08_93_950_f 74 74 18 45 -45 right 1 5.000000e-01 /Users/lab/Documents/experiments/2019/surprise_5/stim/2_noeffect.mov 490 10-Oct-2019 12:12:58 -2.761023e+02 1.233405e+02 0 0
al_ca_06_08_93_950_f 74 75 75 -45 45 left 1 5.000000e-01 /Users/lab/Documents/experiments/2019/surprise_5/stim/10_noeffect.mov 447 10-Oct-2019 12:13:01 -1.253804e+02 2.390939e+02 0 0
al_ca_06_08_93_950_f 74 76 50 45 -45 right 1 5.000000e-01 /Users/lab/Documents/experiments/2019/surprise_5/stim/7_noeffect.mov 559 10-Oct-2019 12:13:20 1.622148e+02 3.994275e+02 0 1
al_ca_06_08_93_950_f 74 77 52 -45 -45 left 1 5.000000e-01 /Users/lab/Documents/experiments/2019/surprise_5/stim/7_noeffect.mov 539 10-Oct-2019 12:13:23 2.237137e+02 -1.053049e+01 0 0
al_ca_06_08_93_950_f 74 78 12 -45 -45 left 1 5.000000e-01 /Users/lab/Documents/experiments/2019/surprise_5/stim/2_noeffect.mov 554 10-Oct-2019 12:13:26 3.114472e+02 -1.731356e+02 0 0
al_ca_06_08_93_950_f 74 79 8 -45 -45 left 1 5.000000e-01 /Users/lab/Documents/experiments/2019/surprise_5/stim/1_noeffect.mov 581 10-Oct-2019 12:13:28 -4.940938e+02 3.503459e+02 0 0
al_ca_06_08_93_950_f 74 80 21 45 45 right 1 5.000000e-01 /Users/lab/Documents/experiments/2019/surprise_5/stim/3_noeffect.mov 796 10-Oct-2019 12:13:32 -3.946654e+02 1.723443e+02 0 0
