subject_name subjectNumber iTrial unshuffled_trial targetOrientation flankersOrientation response correct onscreen_stim_duration magicShows rt date time_of_day deltaX deltaY surpriseClip isClipTrial
72GG03_F25 2 1 35 -45 45 left 1 5.000000e-01 /Users/lab/Documents/magic_control_exp/stim/5_noeffect.mov 664 25-Sep-2017 13:24:30 -1.392020e+02 7.520881e+01 0 1
72GG03_F25 2 2 13 45 45 right 1 5.000000e-01 /Users/lab/Documents/magic_control_exp/stim/2_noeffect.mov 437 25-Sep-2017 13:24:33 1.613972e+02 -1.276122e+02 0 0
72GG03_F25 2 3 11 -45 45 left 1 5.000000e-01 /Users/lab/Documents/magic_control_exp/stim/2_noeffect.mov 581 25-Sep-2017 13:24:36 -1.205696e+02 2.314827e+02 0 0
72GG03_F25 2 4 55 -45 45 left 1 5.000000e-01 /Users/lab/Documents/magic_control_exp/stim/7_noeffect.mov 531 25-Sep-2017 13:24:56 1.719154e+02 3.743541e+02 0 1
72GG03_F25 2 5 21 45 45 right 1 5.000000e-01 /Users/lab/Documents/magic_control_exp/stim/3_noeffect.mov 463 25-Sep-2017 13:24:59 -3.233978e+01 1.450451e+02 0 0
72GG03_F25 2 6 69 45 45 right 1 5.000000e-01 /Users/lab/Documents/magic_control_exp/stim/9_noeffect.mov 445 25-Sep-2017 13:25:01 2.557051e+02 4.876654e+02 0 0
72GG03_F25 2 7 7 -45 45 left 1 5.000000e-01 /Users/lab/Documents/magic_control_exp/stim/1_noeffect.mov 595 25-Sep-2017 13:25:04 -9.069662e+00 -4.555250e+02 0 0
72GG03_F25 2 8 2 45 -45 right 1 5.000000e-01 /Users/lab/Documents/magic_control_exp/stim/1_noeffect.mov 595 25-Sep-2017 13:25:31 -4.597360e+02 -3.005551e+02 0 1
72GG03_F25 2 9 66 45 -45 right 1 5.000000e-01 /Users/lab/Documents/magic_control_exp/stim/9_noeffect.mov 561 25-Sep-2017 13:25:34 -1.195329e+02 3.023511e+02 0 0
72GG03_F25 2 10 51 -45 45 left 1 5.000000e-01 /Users/lab/Documents/magic_control_exp/stim/7_noeffect.mov 578 25-Sep-2017 13:25:37 3.283178e+02 -2.648047e+02 0 0
72GG03_F25 2 11 18 45 -45 right 1 5.000000e-01 /Users/lab/Documents/magic_control_exp/stim/2_noeffect.mov 489 25-Sep-2017 13:25:39 -4.642646e+01 6.977997e+01 0 0
72GG03_F25 2 12 19 -45 45 left 1 5.000000e-01 /Users/lab/Documents/magic_control_exp/stim/2_noeffect.mov 631 25-Sep-2017 13:26:06 -4.817781e+02 -2.622273e+02 0 1
72GG03_F25 2 13 22 45 -45 right 1 5.000000e-01 /Users/lab/Documents/magic_control_exp/stim/3_noeffect.mov 576 25-Sep-2017 13:26:08 -2.356074e+02 -3.269052e+02 0 0
72GG03_F25 2 14 64 -45 -45 left 1 5.000000e-01 /Users/lab/Documents/magic_control_exp/stim/8_noeffect.mov 458 25-Sep-2017 13:26:11 -8.495388e+01 1.173734e+02 0 0
72GG03_F25 2 15 59 -45 45 left 1 5.000000e-01 /Users/lab/Documents/magic_control_exp/stim/8_noeffect.mov 456 25-Sep-2017 13:26:14 -5.311032e+01 -1.617908e+01 0 0
72GG03_F25 2 16 63 -45 45 left 1 5.000000e-01 /Users/lab/Documents/magic_control_exp/stim/8_noeffect.mov 596 25-Sep-2017 13:26:36 -3.778546e+02 2.655026e+02 0 1
72GG03_F25 2 17 24 -45 -45 left 1 5.000000e-01 /Users/lab/Documents/magic_control_exp/stim/3_noeffect.mov 477 25-Sep-2017 13:26:39 4.324947e+02 3.543219e+02 0 0
72GG03_F25 2 18 50 45 -45 right 1 5.000000e-01 /Users/lab/Documents/magic_control_exp/stim/7_noeffect.mov 600 25-Sep-2017 13:26:42 -4.721784e+02 3.860645e+02 0 0
72GG03_F25 2 19 3 -45 45 left 1 5.000000e-01 /Users/lab/Documents/magic_control_exp/stim/1_noeffect.mov 560 25-Sep-2017 13:26:45 3.170132e+00 2.000665e+02 0 0
72GG03_F25 2 20 25 45 45 right 1 5.000000e-01 /Users/lab/Documents/magic_control_exp/stim/4_noeffect.mov 564 25-Sep-2017 13:27:03 3.556428e+02 -8.374434e+01 0 1
72GG03_F25 2 21 29 45 45 right 1 5.000000e-01 /Users/lab/Documents/magic_control_exp/stim/4_noeffect.mov 414 25-Sep-2017 13:27:06 -7.800623e+01 -3.348776e+02 0 0
72GG03_F25 2 22 56 -45 -45 left 1 5.000000e-01 /Users/lab/Documents/magic_control_exp/stim/7_noeffect.mov 399 25-Sep-2017 13:27:09 1.759893e+02 4.917911e+02 0 0
72GG03_F25 2 23 47 -45 45 left 1 5.000000e-01 /Users/lab/Documents/magic_control_exp/stim/6_noeffect.mov 478 25-Sep-2017 13:27:12 3.536860e+01 -2.877108e+02 0 0
72GG03_F25 2 24 40 -45 -45 left 1 5.000000e-01 /Users/lab/Documents/magic_control_exp/stim/5_noeffect.mov 597 25-Sep-2017 13:27:29 2.817587e+02 3.141327e+02 0 1
72GG03_F25 2 25 6 45 -45 right 1 5.000000e-01 /Users/lab/Documents/magic_control_exp/stim/1_noeffect.mov 509 25-Sep-2017 13:27:32 -3.288258e+02 1.242508e+02 0 0
72GG03_F25 2 26 68 -45 -45 left 1 5.000000e-01 /Users/lab/Documents/magic_control_exp/stim/9_noeffect.mov 410 25-Sep-2017 13:27:35 -4.619155e+01 4.396612e+02 0 0
72GG03_F25 2 27 17 45 45 right 1 5.000000e-01 /Users/lab/Documents/magic_control_exp/stim/2_noeffect.mov 386 25-Sep-2017 13:27:38 -2.586550e+02 1.626114e+02 0 0
72GG03_F25 2 28 43 -45 45 left 1 5.000000e-01 /Users/lab/Documents/magic_control_exp/stim/6_noeffect.mov 663 25-Sep-2017 13:27:53 -3.225763e+02 -3.173155e+02 0 1
72GG03_F25 2 29 31 -45 45 left 1 5.000000e-01 /Users/lab/Documents/magic_control_exp/stim/4_noeffect.mov 493 25-Sep-2017 13:27:56 3.698338e+02 -4.316430e+02 0 0
72GG03_F25 2 30 62 45 -45 right 1 5.000000e-01 /Users/lab/Documents/magic_control_exp/stim/8_noeffect.mov 527 25-Sep-2017 13:27:59 2.558600e+02 1.805659e+02 0 0
72GG03_F25 2 31 12 -45 -45 left 1 5.000000e-01 /Users/lab/Documents/magic_control_exp/stim/2_noeffect.mov 415 25-Sep-2017 13:28:02 -8.521346e+01 2.317468e+02 0 0
72GG03_F25 2 32 72 -45 -45 left 1 5.000000e-01 /Users/lab/Documents/magic_control_exp/stim/9_noeffect.mov 451 25-Sep-2017 13:28:24 -1.269219e+01 -3.265941e+02 0 1
72GG03_F25 2 33 14 45 -45 right 1 5.000000e-01 /Users/lab/Documents/magic_control_exp/stim/2_noeffect.mov 494 25-Sep-2017 13:28:27 1.493048e+02 -2.467045e+02 0 0
72GG03_F25 2 34 28 -45 -45 left 1 5.000000e-01 /Users/lab/Documents/magic_control_exp/stim/4_noeffect.mov 373 25-Sep-2017 13:28:30 1.876856e+02 3.621179e+02 0 0
72GG03_F25 2 35 58 45 -45 left 0 5.000000e-01 /Users/lab/Documents/magic_control_exp/stim/8_noeffect.mov 510 25-Sep-2017 13:28:33 2.151959e+02 -2.823706e+02 0 0
72GG03_F25 2 36 1 45 45 right 1 5.000000e-01 /Users/lab/Documents/magic_control_exp/stim/1_noeffect.mov 531 25-Sep-2017 13:28:59 -1.518078e+02 3.593013e+02 0 1
72GG03_F25 2 37 48 -45 -45 left 1 5.000000e-01 /Users/lab/Documents/magic_control_exp/stim/6_noeffect.mov 420 25-Sep-2017 13:29:02 -2.653987e+02 2.988507e+02 0 0
72GG03_F25 2 38 67 -45 45 left 1 5.000000e-01 /Users/lab/Documents/magic_control_exp/stim/9_noeffect.mov 471 25-Sep-2017 13:29:05 1.192554e+02 4.724488e+00 0 0
72GG03_F25 2 39 49 45 45 right 1 5.000000e-01 /Users/lab/Documents/magic_control_exp/stim/7_noeffect.mov 460 25-Sep-2017 13:29:07 -3.938709e+02 4.854798e+02 0 0
72GG03_F25 2 40 16 -45 -45 left 1 5.000000e-01 /Users/lab/Documents/magic_control_exp/stim/2_noeffect.mov 462 25-Sep-2017 13:29:33 2.781445e+00 4.264339e+02 0 1
72GG03_F25 2 41 27 -45 45 left 1 5.000000e-01 /Users/lab/Documents/magic_control_exp/stim/4_noeffect.mov 593 25-Sep-2017 13:29:36 4.211630e+02 -4.511062e+02 0 0
72GG03_F25 2 42 75 -45 45 left 1 5.000000e-01 /Users/lab/Documents/magic_control_exp/stim/9_noeffect.mov 543 25-Sep-2017 13:29:39 -2.642864e+02 -3.126447e+02 0 0
72GG03_F25 2 43 8 -45 -45 left 1 5.000000e-01 /Users/lab/Documents/magic_control_exp/stim/1_noeffect.mov 437 25-Sep-2017 13:29:42 -4.584061e+02 2.282601e+02 0 0
72GG03_F25 2 44 79 -45 45 left 1 5.000000e-01 /Users/lab/Documents/magic_control_exp/stim/9_noeffect.mov 547 25-Sep-2017 13:30:05 3.144251e+02 2.896448e+01 0 1
72GG03_F25 2 45 15 -45 45 left 1 5.000000e-01 /Users/lab/Documents/magic_control_exp/stim/2_noeffect.mov 509 25-Sep-2017 13:30:08 4.179000e+02 2.358596e+02 0 0
72GG03_F25 2 46 73 45 45 right 1 5.000000e-01 /Users/lab/Documents/magic_control_exp/stim/9_noeffect.mov 480 25-Sep-2017 13:30:10 1.743329e+02 3.666525e+02 0 0
72GG03_F25 2 47 10 45 -45 right 1 5.000000e-01 /Users/lab/Documents/magic_control_exp/stim/2_noeffect.mov 667 25-Sep-2017 13:30:13 -1.512273e+02 -3.374643e+02 0 0
72GG03_F25 2 48 76 -45 -45 left 1 5.000000e-01 /Users/lab/Documents/magic_control_exp/stim/9_noeffect.mov 580 25-Sep-2017 13:30:36 -2.014350e+01 2.936867e+02 0 1
72GG03_F25 2 49 37 45 45 right 1 5.000000e-01 /Users/lab/Documents/magic_control_exp/stim/5_noeffect.mov 418 25-Sep-2017 13:30:39 3.618428e+02 1.343553e+02 0 0
72GG03_F25 2 50 52 -45 -45 left 1 5.000000e-01 /Users/lab/Documents/magic_control_exp/stim/7_noeffect.mov 467 25-Sep-2017 13:30:42 3.232738e+02 5.519191e+01 0 0
72GG03_F25 2 51 20 -45 -45 left 1 5.000000e-01 /Users/lab/Documents/magic_control_exp/stim/2_noeffect.mov 440 25-Sep-2017 13:30:45 2.051596e+02 2.214587e+01 0 0
72GG03_F25 2 52 30 45 -45 right 1 5.000000e-01 /Users/lab/Documents/magic_control_exp/stim/4_noeffect.mov 663 25-Sep-2017 13:31:03 1.379353e+02 2.913123e+02 0 1
72GG03_F25 2 53 60 -45 -45 left 1 5.000000e-01 /Users/lab/Documents/magic_control_exp/stim/8_noeffect.mov 404 25-Sep-2017 13:31:06 -2.034671e+02 -9.279450e+01 0 0
72GG03_F25 2 54 23 -45 45 left 1 5.000000e-01 /Users/lab/Documents/magic_control_exp/stim/3_noeffect.mov 496 25-Sep-2017 13:31:09 1.619100e+02 3.981385e+01 0 0
72GG03_F25 2 55 77 45 45 right 1 5.000000e-01 /Users/lab/Documents/magic_control_exp/stim/9_noeffect.mov 398 25-Sep-2017 13:31:12 1.733814e+02 -1.033522e+02 0 0
72GG03_F25 2 56 5 45 45 right 1 5.000000e-01 /Users/lab/Documents/magic_control_exp/stim/1_noeffect.mov 746 25-Sep-2017 13:31:38 4.365923e+02 -1.918333e+02 0 1
72GG03_F25 2 57 4 -45 -45 left 1 5.000000e-01 /Users/lab/Documents/magic_control_exp/stim/1_noeffect.mov 436 25-Sep-2017 13:31:41 -4.778608e+02 -4.774266e+02 0 0
72GG03_F25 2 58 53 45 45 right 1 5.000000e-01 /Users/lab/Documents/magic_control_exp/stim/7_noeffect.mov 510 25-Sep-2017 13:31:44 -4.540341e+02 -2.099015e+02 0 0
72GG03_F25 2 59 70 45 -45 right 1 5.000000e-01 /Users/lab/Documents/magic_control_exp/stim/9_noeffect.mov 593 25-Sep-2017 13:31:47 4.288129e+01 1.558516e+02 0 0
72GG03_F25 2 60 41 45 45 right 1 5.000000e-01 /Users/lab/Documents/magic_control_exp/stim/6_noeffect.mov 489 25-Sep-2017 13:32:02 4.713806e+01 1.672598e+02 0 1
72GG03_F25 2 61 33 45 45 right 1 5.000000e-01 /Users/lab/Documents/magic_control_exp/stim/5_noeffect.mov 478 25-Sep-2017 13:32:05 4.378751e+01 -4.660329e+02 0 0
72GG03_F25 2 62 65 45 45 right 1 5.000000e-01 /Users/lab/Documents/magic_control_exp/stim/9_noeffect.mov 492 25-Sep-2017 13:32:08 -3.372771e+02 7.874544e+00 0 0
72GG03_F25 2 63 54 45 -45 right 1 5.000000e-01 /Users/lab/Documents/magic_control_exp/stim/7_noeffect.mov 543 25-Sep-2017 13:32:10 -1.753195e+02 -4.085774e+02 0 0
72GG03_F25 2 64 46 45 -45 right 1 5.000000e-01 /Users/lab/Documents/magic_control_exp/stim/6_noeffect.mov 631 25-Sep-2017 13:32:26 4.233769e+02 -6.839374e+01 0 1
72GG03_F25 2 65 9 45 45 right 1 5.000000e-01 /Users/lab/Documents/magic_control_exp/stim/2_noeffect.mov 379 25-Sep-2017 13:32:29 3.045661e+02 -4.469485e+02 0 0
72GG03_F25 2 66 80 -45 -45 left 1 5.000000e-01 /Users/lab/Documents/magic_control_exp/stim/9_noeffect.mov 463 25-Sep-2017 13:32:32 4.869014e+02 -3.120988e+02 0 0
72GG03_F25 2 67 71 -45 45 left 1 5.000000e-01 /Users/lab/Documents/magic_control_exp/stim/9_noeffect.mov 752 25-Sep-2017 13:32:35 -3.435276e+02 -3.349877e+02 0 0
72GG03_F25 2 68 78 45 -45 right 1 5.000000e-01 /Users/lab/Documents/magic_control_exp/stim/9_noeffect.mov 563 25-Sep-2017 13:32:58 -3.257794e+02 4.172073e+01 0 1
72GG03_F25 2 69 61 45 45 right 1 5.000000e-01 /Users/lab/Documents/magic_control_exp/stim/8_noeffect.mov 438 25-Sep-2017 13:33:00 -4.678205e+02 -4.588983e+01 0 0
72GG03_F25 2 70 32 -45 -45 left 1 5.000000e-01 /Users/lab/Documents/magic_control_exp/stim/4_noeffect.mov 461 25-Sep-2017 13:33:03 -4.435149e+02 -1.394075e+02 0 0
72GG03_F25 2 71 74 45 -45 right 1 5.000000e-01 /Users/lab/Documents/magic_control_exp/stim/9_noeffect.mov 527 25-Sep-2017 13:33:06 2.671708e+02 -4.716204e+02 0 0
72GG03_F25 2 72 38 45 -45 right 1 5.000000e-01 /Users/lab/Documents/magic_control_exp/stim/5_noeffect.mov 647 25-Sep-2017 13:33:23 3.184384e+02 -5.717383e+01 0 1
72GG03_F25 2 73 39 -45 45 left 1 5.000000e-01 /Users/lab/Documents/magic_control_exp/stim/5_noeffect.mov 594 25-Sep-2017 13:33:26 -2.136430e+02 -3.028800e+01 0 0
72GG03_F25 2 74 26 45 -45 right 1 5.000000e-01 /Users/lab/Documents/magic_control_exp/stim/4_noeffect.mov 593 25-Sep-2017 13:33:29 4.817968e+02 -3.038482e+02 0 0
72GG03_F25 2 75 42 45 -45 right 1 5.000000e-01 /Users/lab/Documents/magic_control_exp/stim/6_noeffect.mov 525 25-Sep-2017 13:33:32 6.489831e+01 -3.340631e+02 0 0
72GG03_F25 2 76 36 -45 -45 left 1 5.000000e-01 /Users/lab/Documents/magic_control_exp/stim/5_noeffect.mov 598 25-Sep-2017 13:33:49 -6.353563e+01 1.009577e+02 0 1
72GG03_F25 2 77 44 -45 -45 left 1 5.000000e-01 /Users/lab/Documents/magic_control_exp/stim/6_noeffect.mov 417 25-Sep-2017 13:33:52 1.614010e+02 -1.573215e+02 0 0
72GG03_F25 2 78 34 45 -45 right 1 5.000000e-01 /Users/lab/Documents/magic_control_exp/stim/5_noeffect.mov 593 25-Sep-2017 13:33:55 -1.855430e+02 -1.211743e+02 0 0
72GG03_F25 2 79 57 45 45 right 1 5.000000e-01 /Users/lab/Documents/magic_control_exp/stim/8_noeffect.mov 418 25-Sep-2017 13:33:58 -9.770987e+01 -5.073643e+01 0 0
72GG03_F25 2 80 45 45 45 right 1 5.000000e-01 /Users/lab/Documents/magic_control_exp/stim/6_noeffect.mov 509 25-Sep-2017 13:34:01 -1.894927e+02 -4.151985e+02 0 0
