subject_name subjectNumber iTrial unshuffled_trial targetOrientation flankersOrientation response correct onscreen_stim_duration magicShows rt date time_of_day deltaX deltaY surpriseClip isClipTrial
48rp18_f22 567 1 25 45 45 right 1 5.000000e-01 /Users/corrado/Dropbox/experiments/surprise_control_exp/stim/4_noeffect.mov 882 25-May-2018 16:13:25 -3.237394e+02 -3.726568e+02 0 1
48rp18_f22 567 2 72 -45 -45 left 1 5.000000e-01 /Users/corrado/Dropbox/experiments/surprise_control_exp/stim/9_noeffect.mov 567 25-May-2018 16:13:28 -2.344104e+02 -4.049143e+02 0 0
48rp18_f22 567 3 31 -45 45 left 1 5.000000e-01 /Users/corrado/Dropbox/experiments/surprise_control_exp/stim/4_noeffect.mov 794 25-May-2018 16:13:31 -3.851884e+02 -3.589818e+02 0 0
48rp18_f22 567 4 34 45 -45 right 1 5.000000e-01 /Users/corrado/Dropbox/experiments/surprise_control_exp/stim/5_noeffect.mov 580 25-May-2018 16:13:49 -3.579435e+02 3.532928e+02 0 1
48rp18_f22 567 5 65 45 45 right 1 5.000000e-01 /Users/corrado/Dropbox/experiments/surprise_control_exp/stim/9_noeffect.mov 542 25-May-2018 16:13:51 3.111707e+02 2.171928e+02 0 0
48rp18_f22 567 6 29 45 45 right 1 5.000000e-01 /Users/corrado/Dropbox/experiments/surprise_control_exp/stim/4_noeffect.mov 439 25-May-2018 16:13:54 -1.557039e+02 4.237900e+01 0 0
48rp18_f22 567 7 15 -45 45 left 1 5.000000e-01 /Users/corrado/Dropbox/experiments/surprise_control_exp/stim/2_noeffect.mov 593 25-May-2018 16:13:57 5.441256e+01 3.014668e+02 0 0
48rp18_f22 567 8 21 45 45 right 1 5.000000e-01 /Users/corrado/Dropbox/experiments/surprise_control_exp/stim/3_noeffect.mov 698 25-May-2018 16:14:17 -3.963021e+02 1.471157e+02 0 1
48rp18_f22 567 9 79 -45 45 left 1 5.000000e-01 /Users/corrado/Dropbox/experiments/surprise_control_exp/stim/9_noeffect.mov 592 25-May-2018 16:14:20 2.602488e+02 2.929122e+02 0 0
48rp18_f22 567 10 54 45 -45 right 1 5.000000e-01 /Users/corrado/Dropbox/experiments/surprise_control_exp/stim/7_noeffect.mov 609 25-May-2018 16:14:22 -2.922742e+02 -1.140700e+02 0 0
48rp18_f22 567 11 70 45 -45 right 1 5.000000e-01 /Users/corrado/Dropbox/experiments/surprise_control_exp/stim/9_noeffect.mov 560 25-May-2018 16:14:25 -1.070183e+02 2.578309e+02 0 0
48rp18_f22 567 12 6 45 -45 right 1 5.000000e-01 /Users/corrado/Dropbox/experiments/surprise_control_exp/stim/1_noeffect.mov 713 25-May-2018 16:14:52 8.391786e+01 2.582830e+02 0 1
48rp18_f22 567 13 51 -45 45 left 1 5.000000e-01 /Users/corrado/Dropbox/experiments/surprise_control_exp/stim/7_noeffect.mov 544 25-May-2018 16:14:55 -2.027495e+01 2.398773e+02 0 0
48rp18_f22 567 14 59 -45 45 left 1 5.000000e-01 /Users/corrado/Dropbox/experiments/surprise_control_exp/stim/8_noeffect.mov 676 25-May-2018 16:14:58 -2.207183e+02 1.540682e+02 0 0
48rp18_f22 567 15 50 45 -45 right 1 5.000000e-01 /Users/corrado/Dropbox/experiments/surprise_control_exp/stim/7_noeffect.mov 543 25-May-2018 16:15:01 2.412613e+02 3.184275e+01 0 0
48rp18_f22 567 16 10 45 -45 right 1 5.000000e-01 /Users/corrado/Dropbox/experiments/surprise_control_exp/stim/2_noeffect.mov 697 25-May-2018 16:15:27 -2.956035e+02 -1.908045e+02 0 1
48rp18_f22 567 17 18 45 -45 right 1 5.000000e-01 /Users/corrado/Dropbox/experiments/surprise_control_exp/stim/2_noeffect.mov 560 25-May-2018 16:15:30 -4.321358e+02 1.745721e+02 0 0
48rp18_f22 567 18 5 45 45 right 1 5.000000e-01 /Users/corrado/Dropbox/experiments/surprise_control_exp/stim/1_noeffect.mov 576 25-May-2018 16:15:33 1.271868e+02 -3.808169e+02 0 0
48rp18_f22 567 19 43 -45 45 left 1 5.000000e-01 /Users/corrado/Dropbox/experiments/surprise_control_exp/stim/6_noeffect.mov 777 25-May-2018 16:15:36 3.017665e+02 -4.069703e+02 0 0
48rp18_f22 567 20 1 45 45 right 1 5.000000e-01 /Users/corrado/Dropbox/experiments/surprise_control_exp/stim/1_noeffect.mov 615 25-May-2018 16:16:02 1.548444e+02 4.878501e+02 0 1
48rp18_f22 567 21 28 -45 -45 left 1 5.000000e-01 /Users/corrado/Dropbox/experiments/surprise_control_exp/stim/4_noeffect.mov 594 25-May-2018 16:16:05 -3.725922e+02 -2.843922e+01 0 0
48rp18_f22 567 22 58 45 -45 right 1 5.000000e-01 /Users/corrado/Dropbox/experiments/surprise_control_exp/stim/8_noeffect.mov 485 25-May-2018 16:16:08 -2.695693e+01 -5.115905e+01 0 0
48rp18_f22 567 23 62 45 -45 right 1 5.000000e-01 /Users/corrado/Dropbox/experiments/surprise_control_exp/stim/8_noeffect.mov 577 25-May-2018 16:16:11 -3.168379e+02 -2.308939e+02 0 0
48rp18_f22 567 24 66 45 -45 right 1 5.000000e-01 /Users/corrado/Dropbox/experiments/surprise_control_exp/stim/9_noeffect.mov 646 25-May-2018 16:16:34 -2.119668e+02 2.562796e+01 0 1
48rp18_f22 567 25 68 -45 -45 left 1 5.000000e-01 /Users/corrado/Dropbox/experiments/surprise_control_exp/stim/9_noeffect.mov 474 25-May-2018 16:16:37 2.337785e+02 -1.383940e+02 0 0
48rp18_f22 567 26 3 -45 45 left 1 5.000000e-01 /Users/corrado/Dropbox/experiments/surprise_control_exp/stim/1_noeffect.mov 593 25-May-2018 16:16:40 -3.260024e+02 -2.247761e+02 0 0
48rp18_f22 567 27 23 -45 45 left 1 5.000000e-01 /Users/corrado/Dropbox/experiments/surprise_control_exp/stim/3_noeffect.mov 565 25-May-2018 16:16:43 1.587401e+02 2.966204e+02 0 0
48rp18_f22 567 28 52 -45 -45 left 1 5.000000e-01 /Users/corrado/Dropbox/experiments/surprise_control_exp/stim/7_noeffect.mov 680 25-May-2018 16:17:03 3.464329e+02 2.805157e+01 0 1
48rp18_f22 567 29 40 -45 -45 left 1 5.000000e-01 /Users/corrado/Dropbox/experiments/surprise_control_exp/stim/5_noeffect.mov 527 25-May-2018 16:17:06 5.109460e+01 -3.604556e+02 0 0
48rp18_f22 567 30 74 45 -45 NORESP 0 5.000000e-01 /Users/corrado/Dropbox/experiments/surprise_control_exp/stim/9_noeffect.mov 3011 25-May-2018 16:17:11 -4.086786e+02 4.421570e+02 0 0
48rp18_f22 567 31 14 45 -45 left 0 5.000000e-01 /Users/corrado/Dropbox/experiments/surprise_control_exp/stim/2_noeffect.mov 470 25-May-2018 16:17:14 -3.062285e+02 -1.082752e+02 0 0
48rp18_f22 567 32 46 45 -45 right 1 5.000000e-01 /Users/corrado/Dropbox/experiments/surprise_control_exp/stim/6_noeffect.mov 598 25-May-2018 16:17:29 -3.120408e+02 4.606011e+02 0 1
48rp18_f22 567 33 73 45 45 right 1 5.000000e-01 /Users/corrado/Dropbox/experiments/surprise_control_exp/stim/9_noeffect.mov 464 25-May-2018 16:17:32 3.473564e+02 -4.986530e+02 0 0
48rp18_f22 567 34 71 -45 45 left 1 5.000000e-01 /Users/corrado/Dropbox/experiments/surprise_control_exp/stim/9_noeffect.mov 634 25-May-2018 16:17:35 2.288403e+02 -1.136951e+02 0 0
48rp18_f22 567 35 11 -45 45 left 1 5.000000e-01 /Users/corrado/Dropbox/experiments/surprise_control_exp/stim/2_noeffect.mov 625 25-May-2018 16:17:38 -3.181971e+02 2.964567e+02 0 0
48rp18_f22 567 36 69 45 45 right 1 5.000000e-01 /Users/corrado/Dropbox/experiments/surprise_control_exp/stim/9_noeffect.mov 630 25-May-2018 16:18:01 4.540976e+02 3.980639e+02 0 1
48rp18_f22 567 37 78 45 -45 right 1 5.000000e-01 /Users/corrado/Dropbox/experiments/surprise_control_exp/stim/9_noeffect.mov 659 25-May-2018 16:18:04 6.967287e+00 4.827287e+02 0 0
48rp18_f22 567 38 39 -45 45 left 1 5.000000e-01 /Users/corrado/Dropbox/experiments/surprise_control_exp/stim/5_noeffect.mov 615 25-May-2018 16:18:07 -2.339380e+02 -4.368910e+02 0 0
48rp18_f22 567 39 38 45 -45 right 1 5.000000e-01 /Users/corrado/Dropbox/experiments/surprise_control_exp/stim/5_noeffect.mov 577 25-May-2018 16:18:10 -5.583928e+01 6.588846e+01 0 0
48rp18_f22 567 40 44 -45 -45 left 1 5.000000e-01 /Users/corrado/Dropbox/experiments/surprise_control_exp/stim/6_noeffect.mov 597 25-May-2018 16:18:26 -1.244835e+02 3.868547e+01 0 1
48rp18_f22 567 41 24 -45 -45 left 1 5.000000e-01 /Users/corrado/Dropbox/experiments/surprise_control_exp/stim/3_noeffect.mov 609 25-May-2018 16:18:29 -5.378026e+00 -4.311177e+02 0 0
48rp18_f22 567 42 42 45 -45 right 1 5.000000e-01 /Users/corrado/Dropbox/experiments/surprise_control_exp/stim/6_noeffect.mov 694 25-May-2018 16:18:32 -3.500496e+02 4.760051e+02 0 0
48rp18_f22 567 43 12 -45 -45 left 1 5.000000e-01 /Users/corrado/Dropbox/experiments/surprise_control_exp/stim/2_noeffect.mov 759 25-May-2018 16:18:35 4.789971e+02 3.253284e+02 0 0
48rp18_f22 567 44 77 45 45 right 1 5.000000e-01 /Users/corrado/Dropbox/experiments/surprise_control_exp/stim/9_noeffect.mov 647 25-May-2018 16:18:58 4.246643e+02 4.158708e+02 0 1
48rp18_f22 567 45 55 -45 45 left 1 5.000000e-01 /Users/corrado/Dropbox/experiments/surprise_control_exp/stim/7_noeffect.mov 610 25-May-2018 16:19:01 5.291344e+01 4.595511e+02 0 0
48rp18_f22 567 46 22 45 -45 right 1 5.000000e-01 /Users/corrado/Dropbox/experiments/surprise_control_exp/stim/3_noeffect.mov 643 25-May-2018 16:19:04 -9.209215e+01 -4.669155e+02 0 0
48rp18_f22 567 47 63 -45 45 left 1 5.000000e-01 /Users/corrado/Dropbox/experiments/surprise_control_exp/stim/8_noeffect.mov 626 25-May-2018 16:19:07 -2.326312e+02 -1.964606e+02 0 0
48rp18_f22 567 48 67 -45 45 left 1 5.000000e-01 /Users/corrado/Dropbox/experiments/surprise_control_exp/stim/9_noeffect.mov 764 25-May-2018 16:19:30 2.298074e+02 1.072780e+02 0 1
48rp18_f22 567 49 17 45 45 right 1 5.000000e-01 /Users/corrado/Dropbox/experiments/surprise_control_exp/stim/2_noeffect.mov 542 25-May-2018 16:19:33 4.032862e+02 -3.103710e+02 0 0
48rp18_f22 567 50 56 -45 -45 left 1 5.000000e-01 /Users/corrado/Dropbox/experiments/surprise_control_exp/stim/7_noeffect.mov 438 25-May-2018 16:19:35 2.637696e+02 -3.662123e+02 0 0
48rp18_f22 567 51 26 45 -45 right 1 5.000000e-01 /Users/corrado/Dropbox/experiments/surprise_control_exp/stim/4_noeffect.mov 478 25-May-2018 16:19:38 5.735633e+00 -9.660678e+01 0 0
48rp18_f22 567 52 20 -45 -45 left 1 5.000000e-01 /Users/corrado/Dropbox/experiments/surprise_control_exp/stim/2_noeffect.mov 598 25-May-2018 16:20:04 -3.370738e+01 2.492995e+02 0 1
48rp18_f22 567 53 41 45 45 right 1 5.000000e-01 /Users/corrado/Dropbox/experiments/surprise_control_exp/stim/6_noeffect.mov 447 25-May-2018 16:20:07 2.865070e+01 2.004126e+02 0 0
48rp18_f22 567 54 57 45 45 right 1 5.000000e-01 /Users/corrado/Dropbox/experiments/surprise_control_exp/stim/8_noeffect.mov 594 25-May-2018 16:20:10 -3.231984e+02 -2.191849e+02 0 0
48rp18_f22 567 55 60 -45 -45 left 1 5.000000e-01 /Users/corrado/Dropbox/experiments/surprise_control_exp/stim/8_noeffect.mov 471 25-May-2018 16:20:13 1.365293e+02 -3.871542e+02 0 0
48rp18_f22 567 56 64 -45 -45 left 1 5.000000e-01 /Users/corrado/Dropbox/experiments/surprise_control_exp/stim/8_noeffect.mov 598 25-May-2018 16:20:35 -4.963386e+02 1.920658e+02 0 1
48rp18_f22 567 57 33 45 45 right 1 5.000000e-01 /Users/corrado/Dropbox/experiments/surprise_control_exp/stim/5_noeffect.mov 642 25-May-2018 16:20:38 4.713582e+02 4.895863e+02 0 0
48rp18_f22 567 58 30 45 -45 right 1 5.000000e-01 /Users/corrado/Dropbox/experiments/surprise_control_exp/stim/4_noeffect.mov 593 25-May-2018 16:20:41 -5.315398e+01 4.284325e+02 0 0
48rp18_f22 567 59 35 -45 45 left 1 5.000000e-01 /Users/corrado/Dropbox/experiments/surprise_control_exp/stim/5_noeffect.mov 616 25-May-2018 16:20:44 4.966315e+02 -5.135543e+01 0 0
48rp18_f22 567 60 53 45 45 right 1 5.000000e-01 /Users/corrado/Dropbox/experiments/surprise_control_exp/stim/7_noeffect.mov 564 25-May-2018 16:21:04 -2.926090e+02 -3.887382e+02 0 1
48rp18_f22 567 61 36 -45 -45 left 1 5.000000e-01 /Users/corrado/Dropbox/experiments/surprise_control_exp/stim/5_noeffect.mov 527 25-May-2018 16:21:07 -1.348298e+02 -2.798675e+02 0 0
48rp18_f22 567 62 16 -45 -45 left 1 5.000000e-01 /Users/corrado/Dropbox/experiments/surprise_control_exp/stim/2_noeffect.mov 525 25-May-2018 16:21:10 -1.041241e+02 3.829530e+02 0 0
48rp18_f22 567 63 4 -45 -45 left 1 5.000000e-01 /Users/corrado/Dropbox/experiments/surprise_control_exp/stim/1_noeffect.mov 626 25-May-2018 16:21:13 3.961692e+02 3.025519e+02 0 0
48rp18_f22 567 64 45 45 45 right 1 5.000000e-01 /Users/corrado/Dropbox/experiments/surprise_control_exp/stim/6_noeffect.mov 547 25-May-2018 16:21:28 -1.719477e+02 -4.826739e+02 0 1
48rp18_f22 567 65 49 45 45 right 1 5.000000e-01 /Users/corrado/Dropbox/experiments/surprise_control_exp/stim/7_noeffect.mov 526 25-May-2018 16:21:31 3.231620e+02 -4.792581e+02 0 0
48rp18_f22 567 66 19 -45 45 left 1 5.000000e-01 /Users/corrado/Dropbox/experiments/surprise_control_exp/stim/2_noeffect.mov 499 25-May-2018 16:21:34 -1.924781e+02 9.558327e+01 0 0
48rp18_f22 567 67 80 -45 -45 left 1 5.000000e-01 /Users/corrado/Dropbox/experiments/surprise_control_exp/stim/9_noeffect.mov 432 25-May-2018 16:21:37 -2.026637e+01 -4.441614e+02 0 0
48rp18_f22 567 68 8 -45 -45 left 1 5.000000e-01 /Users/corrado/Dropbox/experiments/surprise_control_exp/stim/1_noeffect.mov 580 25-May-2018 16:22:03 2.175320e+02 -2.990113e+02 0 1
48rp18_f22 567 69 9 45 45 right 1 5.000000e-01 /Users/corrado/Dropbox/experiments/surprise_control_exp/stim/2_noeffect.mov 593 25-May-2018 16:22:06 2.624057e+02 3.729077e+01 0 0
48rp18_f22 567 70 7 -45 45 left 1 5.000000e-01 /Users/corrado/Dropbox/experiments/surprise_control_exp/stim/1_noeffect.mov 583 25-May-2018 16:22:09 3.820111e+02 -3.929096e+02 0 0
48rp18_f22 567 71 47 -45 45 left 1 5.000000e-01 /Users/corrado/Dropbox/experiments/surprise_control_exp/stim/6_noeffect.mov 643 25-May-2018 16:22:12 8.480977e+01 4.570186e+02 0 0
48rp18_f22 567 72 37 45 45 right 1 5.000000e-01 /Users/corrado/Dropbox/experiments/surprise_control_exp/stim/5_noeffect.mov 614 25-May-2018 16:22:29 -1.655847e+02 8.254784e+01 0 1
48rp18_f22 567 73 2 45 -45 right 1 5.000000e-01 /Users/corrado/Dropbox/experiments/surprise_control_exp/stim/1_noeffect.mov 692 25-May-2018 16:22:32 -4.602900e+02 1.808102e+02 0 0
48rp18_f22 567 74 32 -45 -45 left 1 5.000000e-01 /Users/corrado/Dropbox/experiments/surprise_control_exp/stim/4_noeffect.mov 449 25-May-2018 16:22:35 1.231187e+02 2.832834e+02 0 0
48rp18_f22 567 75 76 -45 -45 left 1 5.000000e-01 /Users/corrado/Dropbox/experiments/surprise_control_exp/stim/9_noeffect.mov 495 25-May-2018 16:22:38 -4.340609e+01 3.253991e+02 0 0
48rp18_f22 567 76 61 45 45 right 1 5.000000e-01 /Users/corrado/Dropbox/experiments/surprise_control_exp/stim/8_noeffect.mov 491 25-May-2018 16:23:00 7.187935e+01 -1.116460e+02 0 1
48rp18_f22 567 77 27 -45 45 left 1 5.000000e-01 /Users/corrado/Dropbox/experiments/surprise_control_exp/stim/4_noeffect.mov 525 25-May-2018 16:23:03 3.838723e+02 -2.667128e+02 0 0
48rp18_f22 567 78 13 45 45 left 0 5.000000e-01 /Users/corrado/Dropbox/experiments/surprise_control_exp/stim/2_noeffect.mov 543 25-May-2018 16:23:06 -1.978818e+02 -3.008365e+02 0 0
48rp18_f22 567 79 75 -45 45 left 1 5.000000e-01 /Users/corrado/Dropbox/experiments/surprise_control_exp/stim/9_noeffect.mov 609 25-May-2018 16:23:09 -4.695076e+02 -1.127799e+02 0 0
48rp18_f22 567 80 48 -45 -45 left 1 5.000000e-01 /Users/corrado/Dropbox/experiments/surprise_control_exp/stim/6_noeffect.mov 509 25-May-2018 16:23:12 -1.812200e+02 -1.896078e+02 0 0
