subject_name subjectNumber iTrial unshuffled_trial targetOrientation flankersOrientation response correct onscreen_stim_duration magicShows rt date time_of_day deltaX deltaY surpriseClip isClipTrial
78MM03_M26 2 1 43 -45 45 left 1 5.000000e-01 /Users/lab/Documents/magic_control_exp/stim/6_noeffect.mov 696 22-Sep-2017 11:34:12 -3.571065e+02 2.652462e+00 0 1
78MM03_M26 2 2 9 45 45 right 1 5.000000e-01 /Users/lab/Documents/magic_control_exp/stim/2_noeffect.mov 645 22-Sep-2017 11:34:15 3.616570e+02 -4.990846e+02 0 0
78MM03_M26 2 3 21 45 45 right 1 5.000000e-01 /Users/lab/Documents/magic_control_exp/stim/3_noeffect.mov 560 22-Sep-2017 11:34:18 4.788147e+02 2.461536e+02 0 0
78MM03_M26 2 4 51 -45 45 left 1 5.000000e-01 /Users/lab/Documents/magic_control_exp/stim/7_noeffect.mov 579 22-Sep-2017 11:34:38 4.804028e+02 1.378530e+02 0 1
78MM03_M26 2 5 60 -45 -45 left 1 5.000000e-01 /Users/lab/Documents/magic_control_exp/stim/8_noeffect.mov 459 22-Sep-2017 11:34:41 2.730698e+02 2.624570e+02 0 0
78MM03_M26 2 6 34 45 -45 right 1 5.000000e-01 /Users/lab/Documents/magic_control_exp/stim/5_noeffect.mov 489 22-Sep-2017 11:34:44 -1.860432e+02 -8.426301e+01 0 0
78MM03_M26 2 7 55 -45 45 left 1 5.000000e-01 /Users/lab/Documents/magic_control_exp/stim/7_noeffect.mov 660 22-Sep-2017 11:34:47 1.056417e+02 3.224836e+02 0 0
78MM03_M26 2 8 45 45 45 right 1 5.000000e-01 /Users/lab/Documents/magic_control_exp/stim/6_noeffect.mov 730 22-Sep-2017 11:35:03 -1.317571e+02 2.327921e+02 0 1
78MM03_M26 2 9 54 45 -45 right 1 5.000000e-01 /Users/lab/Documents/magic_control_exp/stim/7_noeffect.mov 627 22-Sep-2017 11:35:06 4.841544e+02 -6.270265e+01 0 0
78MM03_M26 2 10 58 45 -45 right 1 5.000000e-01 /Users/lab/Documents/magic_control_exp/stim/8_noeffect.mov 560 22-Sep-2017 11:35:09 1.061903e+02 4.435497e+02 0 0
78MM03_M26 2 11 8 -45 -45 right 0 5.000000e-01 /Users/lab/Documents/magic_control_exp/stim/1_noeffect.mov 577 22-Sep-2017 11:35:11 2.791332e+02 3.687426e+02 0 0
78MM03_M26 2 12 18 45 -45 right 1 5.000000e-01 /Users/lab/Documents/magic_control_exp/stim/2_noeffect.mov 731 22-Sep-2017 11:35:38 -4.955244e+02 3.091031e+02 0 1
78MM03_M26 2 13 19 -45 45 left 1 5.000000e-01 /Users/lab/Documents/magic_control_exp/stim/2_noeffect.mov 611 22-Sep-2017 11:35:41 -2.880729e+02 3.132130e+02 0 0
78MM03_M26 2 14 70 45 -45 right 1 5.000000e-01 /Users/lab/Documents/magic_control_exp/stim/9_noeffect.mov 526 22-Sep-2017 11:35:44 1.556216e+02 -1.900830e+02 0 0
78MM03_M26 2 15 65 45 45 right 1 5.000000e-01 /Users/lab/Documents/magic_control_exp/stim/9_noeffect.mov 527 22-Sep-2017 11:35:46 2.236277e+02 2.017097e+02 0 0
78MM03_M26 2 16 44 -45 -45 left 1 5.000000e-01 /Users/lab/Documents/magic_control_exp/stim/6_noeffect.mov 746 22-Sep-2017 11:36:02 1.026743e+02 1.691656e+01 0 1
78MM03_M26 2 17 33 45 45 right 1 5.000000e-01 /Users/lab/Documents/magic_control_exp/stim/5_noeffect.mov 644 22-Sep-2017 11:36:05 2.366234e+02 -3.878370e+02 0 0
78MM03_M26 2 18 20 -45 -45 left 1 5.000000e-01 /Users/lab/Documents/magic_control_exp/stim/2_noeffect.mov 760 22-Sep-2017 11:36:08 -2.483991e+02 -1.562174e+01 0 0
78MM03_M26 2 19 69 45 45 right 1 5.000000e-01 /Users/lab/Documents/magic_control_exp/stim/9_noeffect.mov 793 22-Sep-2017 11:36:12 -1.662205e+02 -2.874290e+02 0 0
78MM03_M26 2 20 78 45 -45 right 1 5.000000e-01 /Users/lab/Documents/magic_control_exp/stim/9_noeffect.mov 682 22-Sep-2017 11:36:35 -2.199175e+01 4.439443e+02 0 1
78MM03_M26 2 21 30 45 -45 right 1 5.000000e-01 /Users/lab/Documents/magic_control_exp/stim/4_noeffect.mov 560 22-Sep-2017 11:36:38 -4.266573e+02 -2.320942e+02 0 0
78MM03_M26 2 22 17 45 45 right 1 5.000000e-01 /Users/lab/Documents/magic_control_exp/stim/2_noeffect.mov 577 22-Sep-2017 11:36:41 -1.182060e+02 -1.024655e+02 0 0
78MM03_M26 2 23 4 -45 -45 left 1 5.000000e-01 /Users/lab/Documents/magic_control_exp/stim/1_noeffect.mov 710 22-Sep-2017 11:36:44 1.091848e+02 -3.135691e+02 0 0
78MM03_M26 2 24 11 -45 45 left 1 5.000000e-01 /Users/lab/Documents/magic_control_exp/stim/2_noeffect.mov 782 22-Sep-2017 11:37:10 3.989109e+02 3.811750e+02 0 1
78MM03_M26 2 25 52 -45 -45 left 1 5.000000e-01 /Users/lab/Documents/magic_control_exp/stim/7_noeffect.mov 659 22-Sep-2017 11:37:13 -2.440603e+02 -3.634268e+02 0 0
78MM03_M26 2 26 64 -45 -45 left 1 5.000000e-01 /Users/lab/Documents/magic_control_exp/stim/8_noeffect.mov 577 22-Sep-2017 11:37:16 -1.058576e+02 1.704899e+02 0 0
78MM03_M26 2 27 29 45 45 right 1 5.000000e-01 /Users/lab/Documents/magic_control_exp/stim/4_noeffect.mov 860 22-Sep-2017 11:37:19 -2.208508e+02 2.492312e+02 0 0
78MM03_M26 2 28 76 -45 -45 left 1 5.000000e-01 /Users/lab/Documents/magic_control_exp/stim/9_noeffect.mov 698 22-Sep-2017 11:37:42 3.852803e+02 5.703232e+01 0 1
78MM03_M26 2 29 67 -45 45 left 1 5.000000e-01 /Users/lab/Documents/magic_control_exp/stim/9_noeffect.mov 660 22-Sep-2017 11:37:45 4.330464e+02 -3.137027e+02 0 0
78MM03_M26 2 30 77 45 45 right 1 5.000000e-01 /Users/lab/Documents/magic_control_exp/stim/9_noeffect.mov 726 22-Sep-2017 11:37:48 2.720684e+02 4.276894e+02 0 0
78MM03_M26 2 31 68 -45 -45 left 1 5.000000e-01 /Users/lab/Documents/magic_control_exp/stim/9_noeffect.mov 727 22-Sep-2017 11:37:51 -3.733499e+02 2.869591e+02 0 0
78MM03_M26 2 32 27 -45 45 left 1 5.000000e-01 /Users/lab/Documents/magic_control_exp/stim/4_noeffect.mov 629 22-Sep-2017 11:38:09 -4.837243e+02 -3.203101e+02 0 1
78MM03_M26 2 33 63 -45 45 left 1 5.000000e-01 /Users/lab/Documents/magic_control_exp/stim/8_noeffect.mov 660 22-Sep-2017 11:38:12 -2.897198e+02 -2.691262e+02 0 0
78MM03_M26 2 34 47 -45 45 left 1 5.000000e-01 /Users/lab/Documents/magic_control_exp/stim/6_noeffect.mov 677 22-Sep-2017 11:38:16 -4.598230e+02 2.067401e+02 0 0
78MM03_M26 2 35 36 -45 -45 left 1 5.000000e-01 /Users/lab/Documents/magic_control_exp/stim/5_noeffect.mov 793 22-Sep-2017 11:38:19 -2.228892e+01 1.534879e+02 0 0
78MM03_M26 2 36 59 -45 45 left 1 5.000000e-01 /Users/lab/Documents/magic_control_exp/stim/8_noeffect.mov 713 22-Sep-2017 11:38:41 3.651113e+02 -2.786291e+02 0 1
78MM03_M26 2 37 71 -45 45 left 1 5.000000e-01 /Users/lab/Documents/magic_control_exp/stim/9_noeffect.mov 594 22-Sep-2017 11:38:44 -4.117691e+02 -4.596232e+02 0 0
78MM03_M26 2 38 74 45 -45 right 1 5.000000e-01 /Users/lab/Documents/magic_control_exp/stim/9_noeffect.mov 694 22-Sep-2017 11:38:47 -5.063911e+01 4.513247e+02 0 0
78MM03_M26 2 39 80 -45 -45 left 1 5.000000e-01 /Users/lab/Documents/magic_control_exp/stim/9_noeffect.mov 561 22-Sep-2017 11:38:50 2.350642e+02 1.136275e+02 0 0
78MM03_M26 2 40 37 45 45 right 1 5.000000e-01 /Users/lab/Documents/magic_control_exp/stim/5_noeffect.mov 729 22-Sep-2017 11:39:08 3.324960e+02 -3.826343e+02 0 1
78MM03_M26 2 41 61 45 45 right 1 5.000000e-01 /Users/lab/Documents/magic_control_exp/stim/8_noeffect.mov 611 22-Sep-2017 11:39:11 1.419334e+01 -4.055414e+02 0 0
78MM03_M26 2 42 50 45 -45 right 1 5.000000e-01 /Users/lab/Documents/magic_control_exp/stim/7_noeffect.mov 576 22-Sep-2017 11:39:13 2.607529e+02 -1.456451e+02 0 0
78MM03_M26 2 43 41 45 45 right 1 5.000000e-01 /Users/lab/Documents/magic_control_exp/stim/6_noeffect.mov 710 22-Sep-2017 11:39:17 3.892714e+02 -3.303941e+02 0 0
78MM03_M26 2 44 42 45 -45 right 1 5.000000e-01 /Users/lab/Documents/magic_control_exp/stim/6_noeffect.mov 730 22-Sep-2017 11:39:32 3.604426e+02 1.138870e+02 0 1
78MM03_M26 2 45 14 45 -45 right 1 5.000000e-01 /Users/lab/Documents/magic_control_exp/stim/2_noeffect.mov 561 22-Sep-2017 11:39:35 -2.663840e+02 3.791178e+02 0 0
78MM03_M26 2 46 13 45 45 right 1 5.000000e-01 /Users/lab/Documents/magic_control_exp/stim/2_noeffect.mov 761 22-Sep-2017 11:39:38 -1.178904e+02 2.077622e+02 0 0
78MM03_M26 2 47 46 45 -45 right 1 5.000000e-01 /Users/lab/Documents/magic_control_exp/stim/6_noeffect.mov 627 22-Sep-2017 11:39:41 1.458337e+02 -4.525953e+02 0 0
78MM03_M26 2 48 49 45 45 right 1 5.000000e-01 /Users/lab/Documents/magic_control_exp/stim/7_noeffect.mov 648 22-Sep-2017 11:40:01 -1.359032e+02 1.213096e+02 0 1
78MM03_M26 2 49 40 -45 -45 left 1 5.000000e-01 /Users/lab/Documents/magic_control_exp/stim/5_noeffect.mov 644 22-Sep-2017 11:40:04 3.554553e+02 3.895309e+02 0 0
78MM03_M26 2 50 26 45 -45 right 1 5.000000e-01 /Users/lab/Documents/magic_control_exp/stim/4_noeffect.mov 544 22-Sep-2017 11:40:07 1.219181e+02 3.495768e+02 0 0
78MM03_M26 2 51 48 -45 -45 left 1 5.000000e-01 /Users/lab/Documents/magic_control_exp/stim/6_noeffect.mov 744 22-Sep-2017 11:40:11 -3.853876e+02 -3.377363e+02 0 0
78MM03_M26 2 52 66 45 -45 right 1 5.000000e-01 /Users/lab/Documents/magic_control_exp/stim/9_noeffect.mov 647 22-Sep-2017 11:40:34 -5.231458e+01 -4.695709e+02 0 1
78MM03_M26 2 53 12 -45 -45 left 1 5.000000e-01 /Users/lab/Documents/magic_control_exp/stim/2_noeffect.mov 710 22-Sep-2017 11:40:37 -4.622130e+02 6.473188e+01 0 0
78MM03_M26 2 54 79 -45 45 left 1 5.000000e-01 /Users/lab/Documents/magic_control_exp/stim/9_noeffect.mov 543 22-Sep-2017 11:40:39 -1.353615e+02 7.057275e+01 0 0
78MM03_M26 2 55 28 -45 -45 left 1 5.000000e-01 /Users/lab/Documents/magic_control_exp/stim/4_noeffect.mov 511 22-Sep-2017 11:40:42 5.673913e+01 4.189896e+02 0 0
78MM03_M26 2 56 31 -45 45 left 1 5.000000e-01 /Users/lab/Documents/magic_control_exp/stim/4_noeffect.mov 646 22-Sep-2017 11:41:00 -2.066283e+02 3.899825e+02 0 1
78MM03_M26 2 57 56 -45 -45 left 1 5.000000e-01 /Users/lab/Documents/magic_control_exp/stim/7_noeffect.mov 594 22-Sep-2017 11:41:03 2.336194e+02 -2.060289e+02 0 0
78MM03_M26 2 58 15 -45 45 left 1 5.000000e-01 /Users/lab/Documents/magic_control_exp/stim/2_noeffect.mov 527 22-Sep-2017 11:41:06 4.247762e+02 2.605934e+02 0 0
78MM03_M26 2 59 62 45 -45 right 1 5.000000e-01 /Users/lab/Documents/magic_control_exp/stim/8_noeffect.mov 489 22-Sep-2017 11:41:09 -2.577401e+00 -1.152612e+02 0 0
78MM03_M26 2 60 16 -45 -45 left 1 5.000000e-01 /Users/lab/Documents/magic_control_exp/stim/2_noeffect.mov 681 22-Sep-2017 11:41:35 -1.606392e-01 -4.234168e+02 0 1
78MM03_M26 2 61 6 45 -45 right 1 5.000000e-01 /Users/lab/Documents/magic_control_exp/stim/1_noeffect.mov 489 22-Sep-2017 11:41:38 1.063288e+02 -2.901030e+02 0 0
78MM03_M26 2 62 35 -45 45 left 1 5.000000e-01 /Users/lab/Documents/magic_control_exp/stim/5_noeffect.mov 543 22-Sep-2017 11:41:41 -1.991792e+02 1.901008e+02 0 0
78MM03_M26 2 63 1 45 45 right 1 5.000000e-01 /Users/lab/Documents/magic_control_exp/stim/1_noeffect.mov 426 22-Sep-2017 11:41:44 -2.631386e+01 9.613354e+01 0 0
78MM03_M26 2 64 24 -45 -45 left 1 5.000000e-01 /Users/lab/Documents/magic_control_exp/stim/3_noeffect.mov 647 22-Sep-2017 11:42:03 -1.123892e+02 3.836722e+02 0 1
78MM03_M26 2 65 5 45 45 right 1 5.000000e-01 /Users/lab/Documents/magic_control_exp/stim/1_noeffect.mov 677 22-Sep-2017 11:42:06 -2.543021e+02 4.766309e+01 0 0
78MM03_M26 2 66 22 45 -45 right 1 5.000000e-01 /Users/lab/Documents/magic_control_exp/stim/3_noeffect.mov 543 22-Sep-2017 11:42:09 -1.407551e+02 -4.191643e+02 0 0
78MM03_M26 2 67 7 -45 45 left 1 5.000000e-01 /Users/lab/Documents/magic_control_exp/stim/1_noeffect.mov 526 22-Sep-2017 11:42:12 -6.661423e+01 4.884113e+02 0 0
78MM03_M26 2 68 10 45 -45 right 1 5.000000e-01 /Users/lab/Documents/magic_control_exp/stim/2_noeffect.mov 613 22-Sep-2017 11:42:38 2.661710e+02 2.811569e+02 0 1
78MM03_M26 2 69 2 45 -45 right 1 5.000000e-01 /Users/lab/Documents/magic_control_exp/stim/1_noeffect.mov 585 22-Sep-2017 11:42:41 4.562702e+02 4.059679e+02 0 0
78MM03_M26 2 70 53 45 45 right 1 5.000000e-01 /Users/lab/Documents/magic_control_exp/stim/7_noeffect.mov 477 22-Sep-2017 11:42:44 7.570997e+01 3.026555e+02 0 0
78MM03_M26 2 71 72 -45 -45 left 1 5.000000e-01 /Users/lab/Documents/magic_control_exp/stim/9_noeffect.mov 495 22-Sep-2017 11:42:47 4.428803e+02 -3.811408e+02 0 0
78MM03_M26 2 72 39 -45 45 left 1 5.000000e-01 /Users/lab/Documents/magic_control_exp/stim/5_noeffect.mov 664 22-Sep-2017 11:43:04 -1.704563e+02 1.893959e+02 0 1
78MM03_M26 2 73 32 -45 -45 left 1 5.000000e-01 /Users/lab/Documents/magic_control_exp/stim/4_noeffect.mov 459 22-Sep-2017 11:43:07 -4.716338e+02 -1.239721e+01 0 0
78MM03_M26 2 74 3 -45 45 left 1 5.000000e-01 /Users/lab/Documents/magic_control_exp/stim/1_noeffect.mov 562 22-Sep-2017 11:43:10 -1.423111e+02 3.813326e+02 0 0
78MM03_M26 2 75 57 45 45 right 1 5.000000e-01 /Users/lab/Documents/magic_control_exp/stim/8_noeffect.mov 710 22-Sep-2017 11:43:13 4.140973e+02 -4.543621e+02 0 0
78MM03_M26 2 76 38 45 -45 right 1 5.000000e-01 /Users/lab/Documents/magic_control_exp/stim/5_noeffect.mov 731 22-Sep-2017 11:43:31 4.992185e+02 3.343050e+02 0 1
78MM03_M26 2 77 75 -45 45 left 1 5.000000e-01 /Users/lab/Documents/magic_control_exp/stim/9_noeffect.mov 511 22-Sep-2017 11:43:34 6.747133e+01 1.369373e+01 0 0
78MM03_M26 2 78 25 45 45 right 1 5.000000e-01 /Users/lab/Documents/magic_control_exp/stim/4_noeffect.mov 610 22-Sep-2017 11:43:37 2.978002e+02 2.753124e+02 0 0
78MM03_M26 2 79 23 -45 45 left 1 5.000000e-01 /Users/lab/Documents/magic_control_exp/stim/3_noeffect.mov 542 22-Sep-2017 11:43:40 -3.517148e+02 -4.466241e+02 0 0
78MM03_M26 2 80 73 45 45 right 1 5.000000e-01 /Users/lab/Documents/magic_control_exp/stim/9_noeffect.mov 575 22-Sep-2017 11:43:43 -7.820407e+01 4.264503e+01 0 0
