subject_name subjectNumber iTrial unshuffled_trial targetOrientation flankersOrientation response correct onscreen_stim_duration magicShows rt date time_of_day deltaX deltaY surpriseClip isClipTrial
72GG03_F25 3 1 5 45 45 right 1 5.000000e-01 /Users/lab/Documents/magic_control_exp/stim/1_noeffect.mov 462 25-Sep-2017 13:35:04 4.835631e+02 2.364627e+02 0 1
72GG03_F25 3 2 37 45 45 right 1 5.000000e-01 /Users/lab/Documents/magic_control_exp/stim/5_noeffect.mov 450 25-Sep-2017 13:35:06 -4.894270e+02 -4.736405e+02 0 0
72GG03_F25 3 3 50 45 -45 right 1 5.000000e-01 /Users/lab/Documents/magic_control_exp/stim/7_noeffect.mov 530 25-Sep-2017 13:35:09 1.444831e+02 -3.028454e+02 0 0
72GG03_F25 3 4 19 -45 45 left 1 5.000000e-01 /Users/lab/Documents/magic_control_exp/stim/2_noeffect.mov 612 25-Sep-2017 13:35:36 -4.077941e+02 -4.300332e+02 0 1
72GG03_F25 3 5 44 -45 -45 left 1 5.000000e-01 /Users/lab/Documents/magic_control_exp/stim/6_noeffect.mov 436 25-Sep-2017 13:35:38 3.376593e+02 -8.954952e+01 0 0
72GG03_F25 3 6 45 45 45 right 1 5.000000e-01 /Users/lab/Documents/magic_control_exp/stim/6_noeffect.mov 410 25-Sep-2017 13:35:41 -2.391561e+02 4.948243e+02 0 0
72GG03_F25 3 7 58 45 -45 right 1 5.000000e-01 /Users/lab/Documents/magic_control_exp/stim/8_noeffect.mov 567 25-Sep-2017 13:35:44 2.864992e+01 4.918170e+02 0 0
72GG03_F25 3 8 57 45 45 right 1 5.000000e-01 /Users/lab/Documents/magic_control_exp/stim/8_noeffect.mov 580 25-Sep-2017 13:36:06 -4.299513e+02 -2.411512e+02 0 1
72GG03_F25 3 9 63 -45 45 left 1 5.000000e-01 /Users/lab/Documents/magic_control_exp/stim/8_noeffect.mov 594 25-Sep-2017 13:36:09 -4.936150e+02 2.401995e+02 0 0
72GG03_F25 3 10 66 45 -45 right 1 5.000000e-01 /Users/lab/Documents/magic_control_exp/stim/9_noeffect.mov 576 25-Sep-2017 13:36:12 3.519181e+02 -1.911134e+02 0 0
72GG03_F25 3 11 16 -45 -45 left 1 5.000000e-01 /Users/lab/Documents/magic_control_exp/stim/2_noeffect.mov 432 25-Sep-2017 13:36:15 8.467069e+01 4.463744e+02 0 0
72GG03_F25 3 12 72 -45 -45 left 1 5.000000e-01 /Users/lab/Documents/magic_control_exp/stim/9_noeffect.mov 491 25-Sep-2017 13:36:38 4.408837e+02 -2.010060e+02 0 1
72GG03_F25 3 13 67 -45 45 left 1 5.000000e-01 /Users/lab/Documents/magic_control_exp/stim/9_noeffect.mov 460 25-Sep-2017 13:36:40 -4.144730e+02 -4.049953e+01 0 0
72GG03_F25 3 14 39 -45 45 left 1 5.000000e-01 /Users/lab/Documents/magic_control_exp/stim/5_noeffect.mov 560 25-Sep-2017 13:36:43 1.335562e+02 1.325853e+02 0 0
72GG03_F25 3 15 36 -45 -45 left 1 5.000000e-01 /Users/lab/Documents/magic_control_exp/stim/5_noeffect.mov 343 25-Sep-2017 13:36:46 -2.983024e+01 -4.864945e+01 0 0
72GG03_F25 3 16 49 45 45 right 1 5.000000e-01 /Users/lab/Documents/magic_control_exp/stim/7_noeffect.mov 615 25-Sep-2017 13:37:06 3.488323e+02 5.102242e+01 0 1
72GG03_F25 3 17 35 -45 45 left 1 5.000000e-01 /Users/lab/Documents/magic_control_exp/stim/5_noeffect.mov 594 25-Sep-2017 13:37:09 9.238601e+00 3.795011e+02 0 0
72GG03_F25 3 18 15 -45 45 left 1 5.000000e-01 /Users/lab/Documents/magic_control_exp/stim/2_noeffect.mov 526 25-Sep-2017 13:37:12 2.272941e+02 -2.679192e+01 0 0
72GG03_F25 3 19 29 45 45 right 1 5.000000e-01 /Users/lab/Documents/magic_control_exp/stim/4_noeffect.mov 392 25-Sep-2017 13:37:15 4.558382e+02 1.792558e+02 0 0
72GG03_F25 3 20 9 45 45 right 1 5.000000e-01 /Users/lab/Documents/magic_control_exp/stim/2_noeffect.mov 446 25-Sep-2017 13:37:41 1.021201e+02 1.484527e+02 0 1
72GG03_F25 3 21 75 -45 45 left 1 5.000000e-01 /Users/lab/Documents/magic_control_exp/stim/9_noeffect.mov 489 25-Sep-2017 13:37:44 5.083702e+01 -7.986240e+01 0 0
72GG03_F25 3 22 79 -45 45 left 1 5.000000e-01 /Users/lab/Documents/magic_control_exp/stim/9_noeffect.mov 509 25-Sep-2017 13:37:46 -5.097086e+01 2.396754e+02 0 0
72GG03_F25 3 23 61 45 45 right 1 5.000000e-01 /Users/lab/Documents/magic_control_exp/stim/8_noeffect.mov 466 25-Sep-2017 13:37:49 -1.753471e+02 -4.658804e+02 0 0
72GG03_F25 3 24 26 45 -45 right 1 5.000000e-01 /Users/lab/Documents/magic_control_exp/stim/4_noeffect.mov 490 25-Sep-2017 13:38:07 -1.317091e+01 -5.565837e+01 0 1
72GG03_F25 3 25 8 -45 -45 left 1 5.000000e-01 /Users/lab/Documents/magic_control_exp/stim/1_noeffect.mov 431 25-Sep-2017 13:38:10 2.470254e+02 2.780935e+02 0 0
72GG03_F25 3 26 60 -45 -45 left 1 5.000000e-01 /Users/lab/Documents/magic_control_exp/stim/8_noeffect.mov 374 25-Sep-2017 13:38:13 -1.477486e+02 1.658480e+02 0 0
72GG03_F25 3 27 43 -45 45 left 1 5.000000e-01 /Users/lab/Documents/magic_control_exp/stim/6_noeffect.mov 584 25-Sep-2017 13:38:16 -5.079255e+01 4.919280e+02 0 0
72GG03_F25 3 28 12 -45 -45 left 1 5.000000e-01 /Users/lab/Documents/magic_control_exp/stim/2_noeffect.mov 469 25-Sep-2017 13:38:42 2.565353e+02 1.510341e+02 0 1
72GG03_F25 3 29 4 -45 -45 left 1 5.000000e-01 /Users/lab/Documents/magic_control_exp/stim/1_noeffect.mov 477 25-Sep-2017 13:38:45 4.545447e+02 -3.139310e+02 0 0
72GG03_F25 3 30 53 45 45 right 1 5.000000e-01 /Users/lab/Documents/magic_control_exp/stim/7_noeffect.mov 476 25-Sep-2017 13:38:47 -2.217408e+02 4.253066e+01 0 0
72GG03_F25 3 31 2 45 -45 right 1 5.000000e-01 /Users/lab/Documents/magic_control_exp/stim/1_noeffect.mov 577 25-Sep-2017 13:38:50 1.372415e+01 -4.045496e+02 0 0
72GG03_F25 3 32 22 45 -45 right 1 5.000000e-01 /Users/lab/Documents/magic_control_exp/stim/3_noeffect.mov 549 25-Sep-2017 13:39:10 1.111190e+01 -4.243266e+02 0 1
72GG03_F25 3 33 1 45 45 right 1 5.000000e-01 /Users/lab/Documents/magic_control_exp/stim/1_noeffect.mov 392 25-Sep-2017 13:39:12 3.882112e+02 -3.840135e+02 0 0
72GG03_F25 3 34 65 45 45 right 1 5.000000e-01 /Users/lab/Documents/magic_control_exp/stim/9_noeffect.mov 435 25-Sep-2017 13:39:15 2.263999e+02 3.663614e+02 0 0
72GG03_F25 3 35 69 45 45 right 1 5.000000e-01 /Users/lab/Documents/magic_control_exp/stim/9_noeffect.mov 405 25-Sep-2017 13:39:18 -2.637079e+01 2.538920e+02 0 0
72GG03_F25 3 36 13 45 45 right 1 5.000000e-01 /Users/lab/Documents/magic_control_exp/stim/2_noeffect.mov 432 25-Sep-2017 13:39:44 3.176832e+02 -1.149497e+02 0 1
72GG03_F25 3 37 11 -45 45 left 1 5.000000e-01 /Users/lab/Documents/magic_control_exp/stim/2_noeffect.mov 534 25-Sep-2017 13:39:47 1.730444e+02 6.428013e-01 0 0
72GG03_F25 3 38 62 45 -45 right 1 5.000000e-01 /Users/lab/Documents/magic_control_exp/stim/8_noeffect.mov 611 25-Sep-2017 13:39:50 -2.287111e+02 -2.319437e+01 0 0
72GG03_F25 3 39 46 45 -45 right 1 5.000000e-01 /Users/lab/Documents/magic_control_exp/stim/6_noeffect.mov 611 25-Sep-2017 13:39:52 4.951045e+02 5.902286e+00 0 0
72GG03_F25 3 40 6 45 -45 right 1 5.000000e-01 /Users/lab/Documents/magic_control_exp/stim/1_noeffect.mov 529 25-Sep-2017 13:40:19 -3.663366e+02 -1.712604e+02 0 1
72GG03_F25 3 41 48 -45 -45 left 1 5.000000e-01 /Users/lab/Documents/magic_control_exp/stim/6_noeffect.mov 405 25-Sep-2017 13:40:21 3.607960e+02 1.119180e+02 0 0
72GG03_F25 3 42 80 -45 -45 left 1 5.000000e-01 /Users/lab/Documents/magic_control_exp/stim/9_noeffect.mov 446 25-Sep-2017 13:40:24 3.728803e+02 -2.293557e+02 0 0
72GG03_F25 3 43 7 -45 45 left 1 5.000000e-01 /Users/lab/Documents/magic_control_exp/stim/1_noeffect.mov 584 25-Sep-2017 13:40:27 3.732167e+02 -2.206447e+02 0 0
72GG03_F25 3 44 42 45 -45 right 1 5.000000e-01 /Users/lab/Documents/magic_control_exp/stim/6_noeffect.mov 564 25-Sep-2017 13:40:43 1.279632e+02 1.794440e+02 0 1
72GG03_F25 3 45 24 -45 -45 left 1 5.000000e-01 /Users/lab/Documents/magic_control_exp/stim/3_noeffect.mov 357 25-Sep-2017 13:40:45 1.570582e+01 3.653741e+01 0 0
72GG03_F25 3 46 51 -45 45 left 1 5.000000e-01 /Users/lab/Documents/magic_control_exp/stim/7_noeffect.mov 594 25-Sep-2017 13:40:48 -4.604002e+02 4.680776e+02 0 0
72GG03_F25 3 47 10 45 -45 right 1 5.000000e-01 /Users/lab/Documents/magic_control_exp/stim/2_noeffect.mov 661 25-Sep-2017 13:40:51 4.957204e+02 3.510210e+02 0 0
72GG03_F25 3 48 34 45 -45 right 1 5.000000e-01 /Users/lab/Documents/magic_control_exp/stim/5_noeffect.mov 630 25-Sep-2017 13:41:09 -4.238489e+02 -3.783716e+02 0 1
72GG03_F25 3 49 38 45 -45 right 1 5.000000e-01 /Users/lab/Documents/magic_control_exp/stim/5_noeffect.mov 509 25-Sep-2017 13:41:12 2.187470e+02 4.073964e+02 0 0
72GG03_F25 3 50 76 -45 -45 left 1 5.000000e-01 /Users/lab/Documents/magic_control_exp/stim/9_noeffect.mov 411 25-Sep-2017 13:41:14 2.099474e+02 4.897214e+02 0 0
72GG03_F25 3 51 78 45 -45 right 1 5.000000e-01 /Users/lab/Documents/magic_control_exp/stim/9_noeffect.mov 476 25-Sep-2017 13:41:17 1.199300e+02 -5.420605e+01 0 0
72GG03_F25 3 52 71 -45 45 left 1 5.000000e-01 /Users/lab/Documents/magic_control_exp/stim/9_noeffect.mov 533 25-Sep-2017 13:41:40 3.037215e+02 -1.361301e+02 0 1
72GG03_F25 3 53 74 45 -45 right 1 5.000000e-01 /Users/lab/Documents/magic_control_exp/stim/9_noeffect.mov 526 25-Sep-2017 13:41:43 3.087284e+02 2.482822e+02 0 0
72GG03_F25 3 54 31 -45 45 left 1 5.000000e-01 /Users/lab/Documents/magic_control_exp/stim/4_noeffect.mov 446 25-Sep-2017 13:41:46 3.172879e+00 -2.465809e+02 0 0
72GG03_F25 3 55 18 45 -45 right 1 5.000000e-01 /Users/lab/Documents/magic_control_exp/stim/2_noeffect.mov 592 25-Sep-2017 13:41:49 -4.507598e+02 3.743494e+02 0 0
72GG03_F25 3 56 52 -45 -45 left 1 5.000000e-01 /Users/lab/Documents/magic_control_exp/stim/7_noeffect.mov 546 25-Sep-2017 13:42:09 -3.755818e+02 -4.164523e+02 0 1
72GG03_F25 3 57 54 45 -45 right 1 5.000000e-01 /Users/lab/Documents/magic_control_exp/stim/7_noeffect.mov 494 25-Sep-2017 13:42:11 3.225289e+02 1.555321e+02 0 0
72GG03_F25 3 58 70 45 -45 right 1 5.000000e-01 /Users/lab/Documents/magic_control_exp/stim/9_noeffect.mov 485 25-Sep-2017 13:42:14 -2.665894e+02 4.755717e+02 0 0
72GG03_F25 3 59 27 -45 45 left 1 5.000000e-01 /Users/lab/Documents/magic_control_exp/stim/4_noeffect.mov 457 25-Sep-2017 13:42:17 5.022574e+01 3.021607e+02 0 0
72GG03_F25 3 60 73 45 45 right 1 5.000000e-01 /Users/lab/Documents/magic_control_exp/stim/9_noeffect.mov 496 25-Sep-2017 13:42:40 4.611680e+02 2.109309e+02 0 1
72GG03_F25 3 61 47 -45 45 left 1 5.000000e-01 /Users/lab/Documents/magic_control_exp/stim/6_noeffect.mov 511 25-Sep-2017 13:42:43 -3.012267e+02 3.935618e+02 0 0
72GG03_F25 3 62 17 45 45 right 1 5.000000e-01 /Users/lab/Documents/magic_control_exp/stim/2_noeffect.mov 471 25-Sep-2017 13:42:46 -4.482022e+02 -2.506503e+02 0 0
72GG03_F25 3 63 30 45 -45 right 1 5.000000e-01 /Users/lab/Documents/magic_control_exp/stim/4_noeffect.mov 543 25-Sep-2017 13:42:48 7.545769e+01 3.989890e+02 0 0
72GG03_F25 3 64 33 45 45 right 1 5.000000e-01 /Users/lab/Documents/magic_control_exp/stim/5_noeffect.mov 597 25-Sep-2017 13:43:06 -9.370059e+01 1.341084e+01 0 1
72GG03_F25 3 65 56 -45 -45 left 1 5.000000e-01 /Users/lab/Documents/magic_control_exp/stim/7_noeffect.mov 424 25-Sep-2017 13:43:09 -2.850167e+01 -4.804621e+02 0 0
72GG03_F25 3 66 40 -45 -45 left 1 5.000000e-01 /Users/lab/Documents/magic_control_exp/stim/5_noeffect.mov 382 25-Sep-2017 13:43:11 -3.196463e+01 -3.526452e+02 0 0
72GG03_F25 3 67 64 -45 -45 left 1 5.000000e-01 /Users/lab/Documents/magic_control_exp/stim/8_noeffect.mov 400 25-Sep-2017 13:43:14 -1.659974e+02 -4.482978e+02 0 0
72GG03_F25 3 68 3 -45 45 left 1 5.000000e-01 /Users/lab/Documents/magic_control_exp/stim/1_noeffect.mov 513 25-Sep-2017 13:43:40 2.192592e+02 -3.163359e+02 0 1
72GG03_F25 3 69 41 45 45 right 1 5.000000e-01 /Users/lab/Documents/magic_control_exp/stim/6_noeffect.mov 418 25-Sep-2017 13:43:43 -4.673326e+02 1.421158e+02 0 0
72GG03_F25 3 70 25 45 45 right 1 5.000000e-01 /Users/lab/Documents/magic_control_exp/stim/4_noeffect.mov 381 25-Sep-2017 13:43:46 -1.400657e+02 -8.430586e+01 0 0
72GG03_F25 3 71 55 -45 45 left 1 5.000000e-01 /Users/lab/Documents/magic_control_exp/stim/7_noeffect.mov 430 25-Sep-2017 13:43:48 3.941064e+02 2.830402e+01 0 0
72GG03_F25 3 72 59 -45 45 left 1 5.000000e-01 /Users/lab/Documents/magic_control_exp/stim/8_noeffect.mov 498 25-Sep-2017 13:44:10 4.316879e+02 -1.464844e+02 0 1
72GG03_F25 3 73 20 -45 -45 left 1 5.000000e-01 /Users/lab/Documents/magic_control_exp/stim/2_noeffect.mov 366 25-Sep-2017 13:44:13 4.008999e+02 -2.210352e+02 0 0
72GG03_F25 3 74 32 -45 -45 left 1 5.000000e-01 /Users/lab/Documents/magic_control_exp/stim/4_noeffect.mov 373 25-Sep-2017 13:44:16 3.118196e+02 3.376775e+02 0 0
72GG03_F25 3 75 28 -45 -45 left 1 5.000000e-01 /Users/lab/Documents/magic_control_exp/stim/4_noeffect.mov 390 25-Sep-2017 13:44:19 -2.231684e+02 9.229201e+01 0 0
72GG03_F25 3 76 77 45 45 right 1 5.000000e-01 /Users/lab/Documents/magic_control_exp/stim/9_noeffect.mov 581 25-Sep-2017 13:44:42 -2.785889e+02 5.335797e+01 0 1
72GG03_F25 3 77 14 45 -45 right 1 5.000000e-01 /Users/lab/Documents/magic_control_exp/stim/2_noeffect.mov 611 25-Sep-2017 13:44:45 2.190633e+02 -2.091269e+02 0 0
72GG03_F25 3 78 68 -45 -45 left 1 5.000000e-01 /Users/lab/Documents/magic_control_exp/stim/9_noeffect.mov 390 25-Sep-2017 13:44:47 1.503291e+02 4.839920e+02 0 0
72GG03_F25 3 79 23 -45 45 left 1 5.000000e-01 /Users/lab/Documents/magic_control_exp/stim/3_noeffect.mov 526 25-Sep-2017 13:44:50 2.972534e+02 2.702545e+02 0 0
72GG03_F25 3 80 21 45 45 right 1 5.000000e-01 /Users/lab/Documents/magic_control_exp/stim/3_noeffect.mov 412 25-Sep-2017 13:44:53 2.398046e+02 3.380577e+02 0 0
