subject_name subjectNumber iTrial unshuffled_trial targetOrientation flankersOrientation response correct onscreen_stim_duration magicShows rt date time_of_day deltaX deltaY surpriseClip isClipTrial
00CC03_F25 4 1 35 -45 45 left 1 5.000000e-01 /Users/lab/Documents/magic_control_exp/stim/5_noeffect.mov 647 19-Sep-2017 12:07:44 5.600982e-01 4.702957e+02 0 1
00CC03_F25 4 2 1 45 45 right 1 5.000000e-01 /Users/lab/Documents/magic_control_exp/stim/1_noeffect.mov 446 19-Sep-2017 12:07:47 -7.493876e+01 1.833870e+02 0 0
00CC03_F25 4 3 7 -45 45 left 1 5.000000e-01 /Users/lab/Documents/magic_control_exp/stim/1_noeffect.mov 560 19-Sep-2017 12:07:50 -2.327807e+02 -1.643477e+02 0 0
00CC03_F25 4 4 36 -45 -45 left 1 5.000000e-01 /Users/lab/Documents/magic_control_exp/stim/5_noeffect.mov 596 19-Sep-2017 12:08:07 -4.321924e+02 -4.299520e+02 0 1
00CC03_F25 4 5 10 45 -45 right 1 5.000000e-01 /Users/lab/Documents/magic_control_exp/stim/2_noeffect.mov 564 19-Sep-2017 12:08:10 -1.660402e+02 -2.340422e+02 0 0
00CC03_F25 4 6 63 -45 45 left 1 5.000000e-01 /Users/lab/Documents/magic_control_exp/stim/8_noeffect.mov 546 19-Sep-2017 12:08:13 -2.698682e+00 2.627091e+02 0 0
00CC03_F25 4 7 14 45 -45 right 1 5.000000e-01 /Users/lab/Documents/magic_control_exp/stim/2_noeffect.mov 713 19-Sep-2017 12:08:16 -4.231722e+02 -1.639121e+02 0 0
00CC03_F25 4 8 48 -45 -45 left 1 5.000000e-01 /Users/lab/Documents/magic_control_exp/stim/6_noeffect.mov 628 19-Sep-2017 12:08:32 -7.258601e+01 -3.092231e+02 0 1
00CC03_F25 4 9 26 45 -45 right 1 5.000000e-01 /Users/lab/Documents/magic_control_exp/stim/4_noeffect.mov 798 19-Sep-2017 12:08:35 2.517970e+02 -1.389326e+02 0 0
00CC03_F25 4 10 20 -45 -45 left 1 5.000000e-01 /Users/lab/Documents/magic_control_exp/stim/2_noeffect.mov 529 19-Sep-2017 12:08:38 -1.998376e+02 3.506281e+02 0 0
00CC03_F25 4 11 2 45 -45 right 1 5.000000e-01 /Users/lab/Documents/magic_control_exp/stim/1_noeffect.mov 581 19-Sep-2017 12:08:41 -4.665284e+02 -1.957192e+02 0 0
00CC03_F25 4 12 74 45 -45 right 1 5.000000e-01 /Users/lab/Documents/magic_control_exp/stim/9_noeffect.mov 614 19-Sep-2017 12:09:04 3.798568e+02 -4.182596e+01 0 1
00CC03_F25 4 13 51 -45 45 left 1 5.000000e-01 /Users/lab/Documents/magic_control_exp/stim/7_noeffect.mov 781 19-Sep-2017 12:09:07 1.108062e+02 3.838464e+02 0 0
00CC03_F25 4 14 5 45 45 right 1 5.000000e-01 /Users/lab/Documents/magic_control_exp/stim/1_noeffect.mov 455 19-Sep-2017 12:09:10 2.641864e+02 -7.401215e+01 0 0
00CC03_F25 4 15 50 45 -45 left 0 5.000000e-01 /Users/lab/Documents/magic_control_exp/stim/7_noeffect.mov 611 19-Sep-2017 12:09:13 -4.612773e+02 -4.267538e+02 0 0
00CC03_F25 4 16 33 45 45 right 1 5.000000e-01 /Users/lab/Documents/magic_control_exp/stim/5_noeffect.mov 581 19-Sep-2017 12:09:30 3.627599e+02 -3.668515e+02 0 1
00CC03_F25 4 17 4 -45 -45 left 1 5.000000e-01 /Users/lab/Documents/magic_control_exp/stim/1_noeffect.mov 780 19-Sep-2017 12:09:33 5.800611e+01 -1.939539e+02 0 0
00CC03_F25 4 18 62 45 -45 right 1 5.000000e-01 /Users/lab/Documents/magic_control_exp/stim/8_noeffect.mov 580 19-Sep-2017 12:09:36 -4.924733e+01 -3.188819e+02 0 0
00CC03_F25 4 19 44 -45 -45 left 1 5.000000e-01 /Users/lab/Documents/magic_control_exp/stim/6_noeffect.mov 879 19-Sep-2017 12:09:40 -4.724377e+02 -1.380077e+02 0 0
00CC03_F25 4 20 40 -45 -45 left 1 5.000000e-01 /Users/lab/Documents/magic_control_exp/stim/5_noeffect.mov 813 19-Sep-2017 12:09:57 -4.658516e+02 -9.252643e+01 0 1
00CC03_F25 4 21 46 45 -45 right 1 5.000000e-01 /Users/lab/Documents/magic_control_exp/stim/6_noeffect.mov 647 19-Sep-2017 12:10:00 1.974364e+02 4.626211e+02 0 0
00CC03_F25 4 22 19 -45 45 left 1 5.000000e-01 /Users/lab/Documents/magic_control_exp/stim/2_noeffect.mov 712 19-Sep-2017 12:10:03 2.612240e+02 -1.799009e+02 0 0
00CC03_F25 4 23 11 -45 45 right 0 5.000000e-01 /Users/lab/Documents/magic_control_exp/stim/2_noeffect.mov 454 19-Sep-2017 12:10:06 -1.769327e+02 4.270850e+02 0 0
00CC03_F25 4 24 64 -45 -45 left 1 5.000000e-01 /Users/lab/Documents/magic_control_exp/stim/8_noeffect.mov 645 19-Sep-2017 12:10:28 2.580476e+02 -4.125561e+02 0 1
00CC03_F25 4 25 30 45 -45 right 1 5.000000e-01 /Users/lab/Documents/magic_control_exp/stim/4_noeffect.mov 581 19-Sep-2017 12:10:31 1.081755e+02 3.359247e+02 0 0
00CC03_F25 4 26 45 45 45 right 1 5.000000e-01 /Users/lab/Documents/magic_control_exp/stim/6_noeffect.mov 894 19-Sep-2017 12:10:35 3.873778e+02 8.440571e+01 0 0
00CC03_F25 4 27 53 45 45 right 1 5.000000e-01 /Users/lab/Documents/magic_control_exp/stim/7_noeffect.mov 482 19-Sep-2017 12:10:38 1.492544e+02 1.983691e+02 0 0
00CC03_F25 4 28 43 -45 45 left 1 5.000000e-01 /Users/lab/Documents/magic_control_exp/stim/6_noeffect.mov 613 19-Sep-2017 12:10:53 -4.191920e+01 -7.783489e+01 0 1
00CC03_F25 4 29 56 -45 -45 left 1 5.000000e-01 /Users/lab/Documents/magic_control_exp/stim/7_noeffect.mov 614 19-Sep-2017 12:10:56 -3.597583e+02 -3.826361e+02 0 0
00CC03_F25 4 30 67 -45 45 left 1 5.000000e-01 /Users/lab/Documents/magic_control_exp/stim/9_noeffect.mov 728 19-Sep-2017 12:10:59 -2.312275e+02 -2.023683e+02 0 0
00CC03_F25 4 31 73 45 45 right 1 5.000000e-01 /Users/lab/Documents/magic_control_exp/stim/9_noeffect.mov 529 19-Sep-2017 12:11:02 -3.239381e+02 -8.857280e+01 0 0
00CC03_F25 4 32 80 -45 -45 right 0 5.000000e-01 /Users/lab/Documents/magic_control_exp/stim/9_noeffect.mov 1664 19-Sep-2017 12:11:26 -1.891616e+02 5.511938e+01 0 1
00CC03_F25 4 33 69 45 45 right 1 5.000000e-01 /Users/lab/Documents/magic_control_exp/stim/9_noeffect.mov 629 19-Sep-2017 12:11:29 5.993140e+01 2.226277e+02 0 0
00CC03_F25 4 34 25 45 45 right 1 5.000000e-01 /Users/lab/Documents/magic_control_exp/stim/4_noeffect.mov 548 19-Sep-2017 12:11:32 1.169002e+02 4.325576e+02 0 0
00CC03_F25 4 35 37 45 45 right 1 5.000000e-01 /Users/lab/Documents/magic_control_exp/stim/5_noeffect.mov 480 19-Sep-2017 12:11:35 1.895522e+02 -3.036252e+01 0 0
00CC03_F25 4 36 31 -45 45 left 1 5.000000e-01 /Users/lab/Documents/magic_control_exp/stim/4_noeffect.mov 647 19-Sep-2017 12:11:53 -3.101220e+02 2.809656e+02 0 1
00CC03_F25 4 37 77 45 45 right 1 5.000000e-01 /Users/lab/Documents/magic_control_exp/stim/9_noeffect.mov 665 19-Sep-2017 12:11:56 -3.439429e+02 6.513149e+01 0 0
00CC03_F25 4 38 42 45 -45 right 1 5.000000e-01 /Users/lab/Documents/magic_control_exp/stim/6_noeffect.mov 546 19-Sep-2017 12:11:59 -1.030609e+02 -3.161541e+02 0 0
00CC03_F25 4 39 15 -45 45 left 1 5.000000e-01 /Users/lab/Documents/magic_control_exp/stim/2_noeffect.mov 581 19-Sep-2017 12:12:02 8.912314e+01 -2.738579e+02 0 0
00CC03_F25 4 40 54 45 -45 right 1 5.000000e-01 /Users/lab/Documents/magic_control_exp/stim/7_noeffect.mov 695 19-Sep-2017 12:12:22 -2.619714e+02 2.947695e+02 0 1
00CC03_F25 4 41 32 -45 -45 left 1 5.000000e-01 /Users/lab/Documents/magic_control_exp/stim/4_noeffect.mov 546 19-Sep-2017 12:12:25 2.154660e+02 -3.200075e+02 0 0
00CC03_F25 4 42 21 45 45 right 1 5.000000e-01 /Users/lab/Documents/magic_control_exp/stim/3_noeffect.mov 712 19-Sep-2017 12:12:28 4.778939e+02 3.972401e+02 0 0
00CC03_F25 4 43 34 45 -45 right 1 5.000000e-01 /Users/lab/Documents/magic_control_exp/stim/5_noeffect.mov 912 19-Sep-2017 12:12:31 -3.949712e+02 -2.559238e+02 0 0
00CC03_F25 4 44 55 -45 45 left 1 5.000000e-01 /Users/lab/Documents/magic_control_exp/stim/7_noeffect.mov 813 19-Sep-2017 12:12:52 -3.871875e+02 -4.085362e+02 0 1
00CC03_F25 4 45 8 -45 -45 left 1 5.000000e-01 /Users/lab/Documents/magic_control_exp/stim/1_noeffect.mov 490 19-Sep-2017 12:12:55 2.221350e+02 3.354933e+02 0 0
00CC03_F25 4 46 60 -45 -45 left 1 5.000000e-01 /Users/lab/Documents/magic_control_exp/stim/8_noeffect.mov 512 19-Sep-2017 12:12:58 -1.949980e+02 1.909852e+02 0 0
00CC03_F25 4 47 9 45 45 right 1 5.000000e-01 /Users/lab/Documents/magic_control_exp/stim/2_noeffect.mov 548 19-Sep-2017 12:13:01 2.773214e+02 -2.782633e+02 0 0
00CC03_F25 4 48 79 -45 45 left 1 5.000000e-01 /Users/lab/Documents/magic_control_exp/stim/9_noeffect.mov 628 19-Sep-2017 12:13:24 -4.807695e+01 -2.682128e+02 0 1
00CC03_F25 4 49 41 45 45 right 1 5.000000e-01 /Users/lab/Documents/magic_control_exp/stim/6_noeffect.mov 612 19-Sep-2017 12:13:27 1.741612e+02 1.589365e+02 0 0
00CC03_F25 4 50 65 45 45 right 1 5.000000e-01 /Users/lab/Documents/magic_control_exp/stim/9_noeffect.mov 610 19-Sep-2017 12:13:30 -2.628654e+02 4.918941e+02 0 0
00CC03_F25 4 51 71 -45 45 left 1 5.000000e-01 /Users/lab/Documents/magic_control_exp/stim/9_noeffect.mov 581 19-Sep-2017 12:13:33 2.218567e+02 -3.350895e+02 0 0
00CC03_F25 4 52 52 -45 -45 left 1 5.000000e-01 /Users/lab/Documents/magic_control_exp/stim/7_noeffect.mov 697 19-Sep-2017 12:13:53 -2.852510e+02 -4.698263e+02 0 1
00CC03_F25 4 53 6 45 -45 right 1 5.000000e-01 /Users/lab/Documents/magic_control_exp/stim/1_noeffect.mov 630 19-Sep-2017 12:13:56 3.852456e+02 4.819355e+02 0 0
00CC03_F25 4 54 72 -45 -45 left 1 5.000000e-01 /Users/lab/Documents/magic_control_exp/stim/9_noeffect.mov 697 19-Sep-2017 12:13:59 3.501460e+02 -1.783343e+02 0 0
00CC03_F25 4 55 61 45 45 right 1 5.000000e-01 /Users/lab/Documents/magic_control_exp/stim/8_noeffect.mov 398 19-Sep-2017 12:14:02 3.350092e+02 -4.028027e+02 0 0
00CC03_F25 4 56 39 -45 45 left 1 5.000000e-01 /Users/lab/Documents/magic_control_exp/stim/5_noeffect.mov 761 19-Sep-2017 12:14:19 -1.628880e+02 4.103783e+02 0 1
00CC03_F25 4 57 38 45 -45 right 1 5.000000e-01 /Users/lab/Documents/magic_control_exp/stim/5_noeffect.mov 764 19-Sep-2017 12:14:23 3.756212e+02 -3.558699e+02 0 0
00CC03_F25 4 58 29 45 45 right 1 5.000000e-01 /Users/lab/Documents/magic_control_exp/stim/4_noeffect.mov 575 19-Sep-2017 12:14:25 -4.110081e+02 -5.094231e+00 0 0
00CC03_F25 4 59 75 -45 45 right 0 5.000000e-01 /Users/lab/Documents/magic_control_exp/stim/9_noeffect.mov 445 19-Sep-2017 12:14:28 -2.707428e+02 6.826335e+01 0 0
00CC03_F25 4 60 17 45 45 right 1 5.000000e-01 /Users/lab/Documents/magic_control_exp/stim/2_noeffect.mov 478 19-Sep-2017 12:14:54 4.128382e+02 -1.129275e+02 0 1
00CC03_F25 4 61 16 -45 -45 left 1 5.000000e-01 /Users/lab/Documents/magic_control_exp/stim/2_noeffect.mov 396 19-Sep-2017 12:14:57 -1.986438e+02 1.153917e+02 0 0
00CC03_F25 4 62 68 -45 -45 left 1 5.000000e-01 /Users/lab/Documents/magic_control_exp/stim/9_noeffect.mov 514 19-Sep-2017 12:15:00 -1.784673e+01 -4.325964e+02 0 0
00CC03_F25 4 63 49 45 45 right 1 5.000000e-01 /Users/lab/Documents/magic_control_exp/stim/7_noeffect.mov 577 19-Sep-2017 12:15:03 3.966156e+02 4.781198e+02 0 0
00CC03_F25 4 64 3 -45 45 left 1 5.000000e-01 /Users/lab/Documents/magic_control_exp/stim/1_noeffect.mov 729 19-Sep-2017 12:15:29 -3.495067e+02 4.518446e+02 0 1
00CC03_F25 4 65 58 45 -45 right 1 5.000000e-01 /Users/lab/Documents/magic_control_exp/stim/8_noeffect.mov 596 19-Sep-2017 12:15:32 2.684401e+02 -1.287634e+02 0 0
00CC03_F25 4 66 78 45 -45 right 1 5.000000e-01 /Users/lab/Documents/magic_control_exp/stim/9_noeffect.mov 644 19-Sep-2017 12:15:35 3.754593e+02 1.202806e+02 0 0
00CC03_F25 4 67 13 45 45 right 1 5.000000e-01 /Users/lab/Documents/magic_control_exp/stim/2_noeffect.mov 444 19-Sep-2017 12:15:38 -2.044573e+02 -3.011602e+02 0 0
00CC03_F25 4 68 23 -45 45 left 1 5.000000e-01 /Users/lab/Documents/magic_control_exp/stim/3_noeffect.mov 844 19-Sep-2017 12:15:58 3.904263e+02 2.540393e+02 0 1
00CC03_F25 4 69 76 -45 -45 left 1 5.000000e-01 /Users/lab/Documents/magic_control_exp/stim/9_noeffect.mov 482 19-Sep-2017 12:16:00 7.020645e+01 -4.274195e+01 0 0
00CC03_F25 4 70 22 45 -45 right 1 5.000000e-01 /Users/lab/Documents/magic_control_exp/stim/3_noeffect.mov 511 19-Sep-2017 12:16:03 -1.079366e+01 1.981644e+02 0 0
00CC03_F25 4 71 47 -45 45 left 1 5.000000e-01 /Users/lab/Documents/magic_control_exp/stim/6_noeffect.mov 468 19-Sep-2017 12:16:06 1.558662e+02 -3.490328e+02 0 0
00CC03_F25 4 72 66 45 -45 right 1 5.000000e-01 /Users/lab/Documents/magic_control_exp/stim/9_noeffect.mov 765 19-Sep-2017 12:16:29 -3.531474e+02 -2.450692e+01 0 1
00CC03_F25 4 73 59 -45 45 left 1 5.000000e-01 /Users/lab/Documents/magic_control_exp/stim/8_noeffect.mov 629 19-Sep-2017 12:16:32 4.605526e+02 -2.025982e+02 0 0
00CC03_F25 4 74 18 45 -45 right 1 5.000000e-01 /Users/lab/Documents/magic_control_exp/stim/2_noeffect.mov 561 19-Sep-2017 12:16:35 -1.134019e+01 -3.062695e+02 0 0
00CC03_F25 4 75 12 -45 -45 left 1 5.000000e-01 /Users/lab/Documents/magic_control_exp/stim/2_noeffect.mov 696 19-Sep-2017 12:16:38 2.797531e+02 -2.854835e+02 0 0
00CC03_F25 4 76 27 -45 45 left 1 5.000000e-01 /Users/lab/Documents/magic_control_exp/stim/4_noeffect.mov 761 19-Sep-2017 12:16:57 -2.224736e+02 -4.365654e+02 0 1
00CC03_F25 4 77 70 45 -45 right 1 5.000000e-01 /Users/lab/Documents/magic_control_exp/stim/9_noeffect.mov 546 19-Sep-2017 12:16:59 4.067790e+02 -4.709995e+02 0 0
00CC03_F25 4 78 28 -45 -45 left 1 5.000000e-01 /Users/lab/Documents/magic_control_exp/stim/4_noeffect.mov 436 19-Sep-2017 12:17:02 2.539387e+02 -7.122089e+01 0 0
00CC03_F25 4 79 24 -45 -45 left 1 5.000000e-01 /Users/lab/Documents/magic_control_exp/stim/3_noeffect.mov 482 19-Sep-2017 12:17:05 1.867542e+02 1.839482e+02 0 0
00CC03_F25 4 80 57 45 45 right 1 5.000000e-01 /Users/lab/Documents/magic_control_exp/stim/8_noeffect.mov 512 19-Sep-2017 12:17:08 1.100990e+01 4.087860e+02 0 0
