subject_name subjectNumber iTrial unshuffled_trial targetOrientation flankersOrientation response correct onscreen_stim_duration magicShows rt date time_of_day deltaX deltaY surpriseClip isClipTrial
77lm27_m19 533 1 32 -45 -45 left 1 5.000000e-01 /Users/corrado/Dropbox/experiments/surprise_control_exp/stim/4_noeffect.mov 1152 22-May-2018 09:47:14 4.723224e+02 -2.501958e+02 0 1
77lm27_m19 533 2 37 45 45 right 1 5.000000e-01 /Users/corrado/Dropbox/experiments/surprise_control_exp/stim/5_noeffect.mov 1382 22-May-2018 09:47:18 -2.686287e+02 -4.685238e+02 0 0
77lm27_m19 533 3 30 45 -45 right 1 5.000000e-01 /Users/corrado/Dropbox/experiments/surprise_control_exp/stim/4_noeffect.mov 981 22-May-2018 09:47:22 -1.950962e+02 1.126190e+02 0 0
77lm27_m19 533 4 29 45 45 right 1 5.000000e-01 /Users/corrado/Dropbox/experiments/surprise_control_exp/stim/4_noeffect.mov 980 22-May-2018 09:47:40 4.948592e+02 -2.591417e+00 0 1
77lm27_m19 533 5 57 45 45 right 1 5.000000e-01 /Users/corrado/Dropbox/experiments/surprise_control_exp/stim/8_noeffect.mov 815 22-May-2018 09:47:43 1.602457e+02 3.042115e+02 0 0
77lm27_m19 533 6 24 -45 -45 left 1 5.000000e-01 /Users/corrado/Dropbox/experiments/surprise_control_exp/stim/3_noeffect.mov 859 22-May-2018 09:47:46 -3.949340e+02 7.482219e+01 0 0
77lm27_m19 533 7 72 -45 -45 left 1 5.000000e-01 /Users/corrado/Dropbox/experiments/surprise_control_exp/stim/9_noeffect.mov 1117 22-May-2018 09:47:50 3.203467e+02 2.632108e+02 0 0
77lm27_m19 533 8 1 45 45 right 1 5.000000e-01 /Users/corrado/Dropbox/experiments/surprise_control_exp/stim/1_noeffect.mov 813 22-May-2018 09:48:17 1.955385e+02 4.063706e+02 0 1
77lm27_m19 533 9 33 45 45 right 1 5.000000e-01 /Users/corrado/Dropbox/experiments/surprise_control_exp/stim/5_noeffect.mov 833 22-May-2018 09:48:20 3.136554e+02 -8.377345e+01 0 0
77lm27_m19 533 10 73 45 45 right 1 5.000000e-01 /Users/corrado/Dropbox/experiments/surprise_control_exp/stim/9_noeffect.mov 894 22-May-2018 09:48:23 -2.233741e+02 -2.761088e+02 0 0
77lm27_m19 533 11 45 45 45 right 1 5.000000e-01 /Users/corrado/Dropbox/experiments/surprise_control_exp/stim/6_noeffect.mov 910 22-May-2018 09:48:26 -2.759796e+02 -3.769045e+02 0 0
77lm27_m19 533 12 64 -45 -45 left 1 5.000000e-01 /Users/corrado/Dropbox/experiments/surprise_control_exp/stim/8_noeffect.mov 845 22-May-2018 09:48:49 3.581031e+02 -1.688520e+01 0 1
77lm27_m19 533 13 78 45 -45 right 1 5.000000e-01 /Users/corrado/Dropbox/experiments/surprise_control_exp/stim/9_noeffect.mov 769 22-May-2018 09:48:52 2.402008e+02 -1.225050e+02 0 0
77lm27_m19 533 14 19 -45 45 left 1 5.000000e-01 /Users/corrado/Dropbox/experiments/surprise_control_exp/stim/2_noeffect.mov 676 22-May-2018 09:48:55 1.889394e+02 -3.983283e+02 0 0
77lm27_m19 533 15 55 -45 45 left 1 5.000000e-01 /Users/corrado/Dropbox/experiments/surprise_control_exp/stim/7_noeffect.mov 710 22-May-2018 09:48:58 4.299043e+02 -3.184805e+02 0 0
77lm27_m19 533 16 69 45 45 right 1 5.000000e-01 /Users/corrado/Dropbox/experiments/surprise_control_exp/stim/9_noeffect.mov 829 22-May-2018 09:49:21 -1.161425e+02 3.483231e+02 0 1
77lm27_m19 533 17 15 -45 45 left 1 5.000000e-01 /Users/corrado/Dropbox/experiments/surprise_control_exp/stim/2_noeffect.mov 760 22-May-2018 09:49:25 -3.648076e+01 -5.610421e+01 0 0
77lm27_m19 533 18 22 45 -45 right 1 5.000000e-01 /Users/corrado/Dropbox/experiments/surprise_control_exp/stim/3_noeffect.mov 610 22-May-2018 09:49:28 -3.202357e+02 -2.321403e+02 0 0
77lm27_m19 533 19 52 -45 -45 left 1 5.000000e-01 /Users/corrado/Dropbox/experiments/surprise_control_exp/stim/7_noeffect.mov 793 22-May-2018 09:49:31 3.487012e+02 -2.717410e+02 0 0
77lm27_m19 533 20 44 -45 -45 left 1 5.000000e-01 /Users/corrado/Dropbox/experiments/surprise_control_exp/stim/6_noeffect.mov 813 22-May-2018 09:49:47 3.514453e+02 -4.007577e+02 0 1
77lm27_m19 533 21 70 45 -45 right 1 5.000000e-01 /Users/corrado/Dropbox/experiments/surprise_control_exp/stim/9_noeffect.mov 697 22-May-2018 09:49:50 -3.240781e+02 2.524984e+02 0 0
77lm27_m19 533 22 56 -45 -45 left 1 5.000000e-01 /Users/corrado/Dropbox/experiments/surprise_control_exp/stim/7_noeffect.mov 1145 22-May-2018 09:49:53 2.040438e+02 4.206953e+02 0 0
77lm27_m19 533 23 27 -45 45 left 1 5.000000e-01 /Users/corrado/Dropbox/experiments/surprise_control_exp/stim/4_noeffect.mov 676 22-May-2018 09:49:56 2.281639e+02 1.101393e+02 0 0
77lm27_m19 533 24 23 -45 45 left 1 5.000000e-01 /Users/corrado/Dropbox/experiments/surprise_control_exp/stim/3_noeffect.mov 796 22-May-2018 09:50:16 -4.966369e+02 -2.539162e+01 0 1
77lm27_m19 533 25 7 -45 45 left 1 5.000000e-01 /Users/corrado/Dropbox/experiments/surprise_control_exp/stim/1_noeffect.mov 710 22-May-2018 09:50:19 2.293201e+02 1.718660e+02 0 0
77lm27_m19 533 26 77 45 45 right 1 5.000000e-01 /Users/corrado/Dropbox/experiments/surprise_control_exp/stim/9_noeffect.mov 778 22-May-2018 09:50:22 1.797693e+02 -2.390503e+02 0 0
77lm27_m19 533 27 28 -45 -45 left 1 5.000000e-01 /Users/corrado/Dropbox/experiments/surprise_control_exp/stim/4_noeffect.mov 811 22-May-2018 09:50:25 9.053645e+01 2.593386e+02 0 0
77lm27_m19 533 28 63 -45 45 left 1 5.000000e-01 /Users/corrado/Dropbox/experiments/surprise_control_exp/stim/8_noeffect.mov 598 22-May-2018 09:50:48 5.657636e+01 -2.755425e+02 0 1
77lm27_m19 533 29 25 45 45 right 1 5.000000e-01 /Users/corrado/Dropbox/experiments/surprise_control_exp/stim/4_noeffect.mov 777 22-May-2018 09:50:51 2.359375e+02 4.622586e+02 0 0
77lm27_m19 533 30 48 -45 -45 left 1 5.000000e-01 /Users/corrado/Dropbox/experiments/surprise_control_exp/stim/6_noeffect.mov 844 22-May-2018 09:50:54 -4.060472e+02 -4.817878e+02 0 0
77lm27_m19 533 31 76 -45 -45 left 1 5.000000e-01 /Users/corrado/Dropbox/experiments/surprise_control_exp/stim/9_noeffect.mov 695 22-May-2018 09:50:57 -1.362822e+02 -2.068431e+02 0 0
77lm27_m19 533 32 43 -45 45 left 1 5.000000e-01 /Users/corrado/Dropbox/experiments/surprise_control_exp/stim/6_noeffect.mov 646 22-May-2018 09:51:13 -2.560267e+02 -1.108898e+02 0 1
77lm27_m19 533 33 60 -45 -45 left 1 5.000000e-01 /Users/corrado/Dropbox/experiments/surprise_control_exp/stim/8_noeffect.mov 810 22-May-2018 09:51:16 4.618483e+02 1.979864e+02 0 0
77lm27_m19 533 34 16 -45 -45 left 1 5.000000e-01 /Users/corrado/Dropbox/experiments/surprise_control_exp/stim/2_noeffect.mov 627 22-May-2018 09:51:19 -6.676902e+01 4.884907e+02 0 0
77lm27_m19 533 35 4 -45 -45 left 1 5.000000e-01 /Users/corrado/Dropbox/experiments/surprise_control_exp/stim/1_noeffect.mov 845 22-May-2018 09:51:22 -3.078565e+02 4.262159e+02 0 0
77lm27_m19 533 36 71 -45 45 left 1 5.000000e-01 /Users/corrado/Dropbox/experiments/surprise_control_exp/stim/9_noeffect.mov 779 22-May-2018 09:51:46 -2.894127e+02 -4.122317e+02 0 1
77lm27_m19 533 37 50 45 -45 right 1 5.000000e-01 /Users/corrado/Dropbox/experiments/surprise_control_exp/stim/7_noeffect.mov 661 22-May-2018 09:51:49 -8.734776e+01 -9.499781e+01 0 0
77lm27_m19 533 38 36 -45 -45 left 1 5.000000e-01 /Users/corrado/Dropbox/experiments/surprise_control_exp/stim/5_noeffect.mov 777 22-May-2018 09:51:52 3.376357e+02 3.120841e+02 0 0
77lm27_m19 533 39 54 45 -45 right 1 5.000000e-01 /Users/corrado/Dropbox/experiments/surprise_control_exp/stim/7_noeffect.mov 715 22-May-2018 09:51:55 -3.021305e+02 -2.779560e+02 0 0
77lm27_m19 533 40 10 45 -45 right 1 5.000000e-01 /Users/corrado/Dropbox/experiments/surprise_control_exp/stim/2_noeffect.mov 781 22-May-2018 09:52:21 -2.849208e+02 -4.830916e+02 0 1
77lm27_m19 533 41 79 -45 45 left 1 5.000000e-01 /Users/corrado/Dropbox/experiments/surprise_control_exp/stim/9_noeffect.mov 731 22-May-2018 09:52:24 -8.828021e+01 -1.239363e+02 0 0
77lm27_m19 533 42 6 45 -45 right 1 5.000000e-01 /Users/corrado/Dropbox/experiments/surprise_control_exp/stim/1_noeffect.mov 649 22-May-2018 09:52:27 3.931418e+01 -8.710856e+00 0 0
77lm27_m19 533 43 38 45 -45 right 1 5.000000e-01 /Users/corrado/Dropbox/experiments/surprise_control_exp/stim/5_noeffect.mov 632 22-May-2018 09:52:30 2.573969e+02 -3.254836e+02 0 0
77lm27_m19 533 44 8 -45 -45 left 1 5.000000e-01 /Users/corrado/Dropbox/experiments/surprise_control_exp/stim/1_noeffect.mov 765 22-May-2018 09:52:57 2.155974e+02 -1.671415e+02 0 1
77lm27_m19 533 45 53 45 45 right 1 5.000000e-01 /Users/corrado/Dropbox/experiments/surprise_control_exp/stim/7_noeffect.mov 781 22-May-2018 09:53:00 4.818343e+02 8.004203e+01 0 0
77lm27_m19 533 46 59 -45 45 left 1 5.000000e-01 /Users/corrado/Dropbox/experiments/surprise_control_exp/stim/8_noeffect.mov 728 22-May-2018 09:53:03 1.165081e+02 -2.351584e+02 0 0
77lm27_m19 533 47 49 45 45 right 1 5.000000e-01 /Users/corrado/Dropbox/experiments/surprise_control_exp/stim/7_noeffect.mov 660 22-May-2018 09:53:06 1.160736e+02 2.271715e+02 0 0
77lm27_m19 533 48 40 -45 -45 left 1 5.000000e-01 /Users/corrado/Dropbox/experiments/surprise_control_exp/stim/5_noeffect.mov 797 22-May-2018 09:53:24 -4.793265e+02 -4.219584e+02 0 1
77lm27_m19 533 49 68 -45 -45 left 1 5.000000e-01 /Users/corrado/Dropbox/experiments/surprise_control_exp/stim/9_noeffect.mov 594 22-May-2018 09:53:27 3.391221e+02 -4.833273e+02 0 0
77lm27_m19 533 50 39 -45 45 left 1 5.000000e-01 /Users/corrado/Dropbox/experiments/surprise_control_exp/stim/5_noeffect.mov 527 22-May-2018 09:53:30 3.627753e+02 -3.132143e+02 0 0
77lm27_m19 533 51 21 45 45 right 1 5.000000e-01 /Users/corrado/Dropbox/experiments/surprise_control_exp/stim/3_noeffect.mov 645 22-May-2018 09:53:33 2.530123e+01 6.251727e+01 0 0
77lm27_m19 533 52 62 45 -45 right 1 5.000000e-01 /Users/corrado/Dropbox/experiments/surprise_control_exp/stim/8_noeffect.mov 747 22-May-2018 09:53:55 1.984960e+01 -4.501560e+02 0 1
77lm27_m19 533 53 66 45 -45 right 1 5.000000e-01 /Users/corrado/Dropbox/experiments/surprise_control_exp/stim/9_noeffect.mov 778 22-May-2018 09:53:58 -4.404021e+01 4.010467e+02 0 0
77lm27_m19 533 54 2 45 -45 right 1 5.000000e-01 /Users/corrado/Dropbox/experiments/surprise_control_exp/stim/1_noeffect.mov 743 22-May-2018 09:54:02 -4.968085e+02 3.597387e+02 0 0
77lm27_m19 533 55 5 45 45 right 1 5.000000e-01 /Users/corrado/Dropbox/experiments/surprise_control_exp/stim/1_noeffect.mov 711 22-May-2018 09:54:05 -2.841891e+01 -4.605098e+02 0 0
77lm27_m19 533 56 74 45 -45 right 1 5.000000e-01 /Users/corrado/Dropbox/experiments/surprise_control_exp/stim/9_noeffect.mov 796 22-May-2018 09:54:28 4.289970e+02 -3.380397e+00 0 1
77lm27_m19 533 57 17 45 45 right 1 5.000000e-01 /Users/corrado/Dropbox/experiments/surprise_control_exp/stim/2_noeffect.mov 894 22-May-2018 09:54:31 3.798569e+02 -4.091260e+02 0 0
77lm27_m19 533 58 11 -45 45 left 1 5.000000e-01 /Users/corrado/Dropbox/experiments/surprise_control_exp/stim/2_noeffect.mov 893 22-May-2018 09:54:35 -2.710954e+01 -3.928891e+02 0 0
77lm27_m19 533 59 41 45 45 right 1 5.000000e-01 /Users/corrado/Dropbox/experiments/surprise_control_exp/stim/6_noeffect.mov 945 22-May-2018 09:54:38 2.908151e+02 -2.771086e+02 0 0
77lm27_m19 533 60 18 45 -45 right 1 5.000000e-01 /Users/corrado/Dropbox/experiments/surprise_control_exp/stim/2_noeffect.mov 863 22-May-2018 09:55:04 2.349610e+02 -3.822443e+02 0 1
77lm27_m19 533 61 26 45 -45 right 1 5.000000e-01 /Users/corrado/Dropbox/experiments/surprise_control_exp/stim/4_noeffect.mov 877 22-May-2018 09:55:08 -2.966809e+01 -4.421891e+02 0 0
77lm27_m19 533 62 51 -45 45 left 1 5.000000e-01 /Users/corrado/Dropbox/experiments/surprise_control_exp/stim/7_noeffect.mov 1043 22-May-2018 09:55:11 -1.992989e+02 2.428203e+02 0 0
77lm27_m19 533 63 46 45 -45 right 1 5.000000e-01 /Users/corrado/Dropbox/experiments/surprise_control_exp/stim/6_noeffect.mov 759 22-May-2018 09:55:14 4.544734e+02 -2.049814e+00 0 0
77lm27_m19 533 64 58 45 -45 right 1 5.000000e-01 /Users/corrado/Dropbox/experiments/surprise_control_exp/stim/8_noeffect.mov 664 22-May-2018 09:55:36 -6.419570e+01 -4.584893e+01 0 1
77lm27_m19 533 65 61 45 45 right 1 5.000000e-01 /Users/corrado/Dropbox/experiments/surprise_control_exp/stim/8_noeffect.mov 676 22-May-2018 09:55:39 4.328462e+02 -7.095870e+01 0 0
77lm27_m19 533 66 31 -45 45 left 1 5.000000e-01 /Users/corrado/Dropbox/experiments/surprise_control_exp/stim/4_noeffect.mov 494 22-May-2018 09:55:42 1.971600e+01 2.878317e+02 0 0
77lm27_m19 533 67 65 45 45 right 1 5.000000e-01 /Users/corrado/Dropbox/experiments/surprise_control_exp/stim/9_noeffect.mov 577 22-May-2018 09:55:45 2.853177e+02 -4.531914e+02 0 0
77lm27_m19 533 68 12 -45 -45 left 1 5.000000e-01 /Users/corrado/Dropbox/experiments/surprise_control_exp/stim/2_noeffect.mov 797 22-May-2018 09:56:12 1.071848e+02 -4.029424e+02 0 1
77lm27_m19 533 69 20 -45 -45 left 1 5.000000e-01 /Users/corrado/Dropbox/experiments/surprise_control_exp/stim/2_noeffect.mov 843 22-May-2018 09:56:15 -8.474793e+01 2.128147e+02 0 0
77lm27_m19 533 70 9 45 45 right 1 5.000000e-01 /Users/corrado/Dropbox/experiments/surprise_control_exp/stim/2_noeffect.mov 544 22-May-2018 09:56:18 3.632955e+01 1.105144e+02 0 0
77lm27_m19 533 71 67 -45 45 left 1 5.000000e-01 /Users/corrado/Dropbox/experiments/surprise_control_exp/stim/9_noeffect.mov 749 22-May-2018 09:56:21 -2.241588e+02 1.068654e+02 0 0
77lm27_m19 533 72 13 45 45 right 1 5.000000e-01 /Users/corrado/Dropbox/experiments/surprise_control_exp/stim/2_noeffect.mov 782 22-May-2018 09:56:47 3.603396e+02 -4.658393e+02 0 1
77lm27_m19 533 73 47 -45 45 left 1 5.000000e-01 /Users/corrado/Dropbox/experiments/surprise_control_exp/stim/6_noeffect.mov 510 22-May-2018 09:56:50 -2.022283e+02 -1.915727e+02 0 0
77lm27_m19 533 74 75 -45 45 left 1 5.000000e-01 /Users/corrado/Dropbox/experiments/surprise_control_exp/stim/9_noeffect.mov 528 22-May-2018 09:56:53 1.429856e+02 4.335363e+02 0 0
77lm27_m19 533 75 34 45 -45 right 1 5.000000e-01 /Users/corrado/Dropbox/experiments/surprise_control_exp/stim/5_noeffect.mov 542 22-May-2018 09:56:56 -1.885856e+02 -1.515767e+02 0 0
77lm27_m19 533 76 14 45 -45 right 1 5.000000e-01 /Users/corrado/Dropbox/experiments/surprise_control_exp/stim/2_noeffect.mov 565 22-May-2018 09:57:22 -1.259613e+02 -3.662494e+02 0 1
77lm27_m19 533 77 35 -45 45 left 1 5.000000e-01 /Users/corrado/Dropbox/experiments/surprise_control_exp/stim/5_noeffect.mov 632 22-May-2018 09:57:25 -3.605793e+02 3.507493e+02 0 0
77lm27_m19 533 78 3 -45 45 left 1 5.000000e-01 /Users/corrado/Dropbox/experiments/surprise_control_exp/stim/1_noeffect.mov 532 22-May-2018 09:57:28 -2.543080e+01 -1.735415e+02 0 0
77lm27_m19 533 79 80 -45 -45 left 1 5.000000e-01 /Users/corrado/Dropbox/experiments/surprise_control_exp/stim/9_noeffect.mov 609 22-May-2018 09:57:31 -3.178056e+02 4.682702e+02 0 0
77lm27_m19 533 80 42 45 -45 right 1 5.000000e-01 /Users/corrado/Dropbox/experiments/surprise_control_exp/stim/6_noeffect.mov 760 22-May-2018 09:57:34 -4.508115e+02 -4.987885e+02 0 0
