subject_name subjectNumber iTrial unshuffled_trial targetOrientation flankersOrientation response correct onscreen_stim_duration magicShows rt date time_of_day deltaX deltaY surpriseClip isClipTrial
92dm08_25 585 1 45 45 45 right 1 5.000000e-01 /Users/corrado/Dropbox/experiments/surprise_control_exp/stim/6_noeffect.mov 748 25-May-2018 11:04:13 2.465875e+02 -2.624861e+02 0 1
92dm08_25 585 2 66 45 -45 right 1 5.000000e-01 /Users/corrado/Dropbox/experiments/surprise_control_exp/stim/9_noeffect.mov 760 25-May-2018 11:04:16 -2.875362e+02 -3.118551e+02 0 0
92dm08_25 585 3 53 45 45 right 1 5.000000e-01 /Users/corrado/Dropbox/experiments/surprise_control_exp/stim/7_noeffect.mov 676 25-May-2018 11:04:19 2.963021e+02 -2.428252e+01 0 0
92dm08_25 585 4 56 -45 -45 left 1 5.000000e-01 /Users/corrado/Dropbox/experiments/surprise_control_exp/stim/7_noeffect.mov 699 25-May-2018 11:04:40 -4.667626e+02 2.189549e+02 0 1
92dm08_25 585 5 32 -45 -45 left 1 5.000000e-01 /Users/corrado/Dropbox/experiments/surprise_control_exp/stim/4_noeffect.mov 808 25-May-2018 11:04:43 -2.642133e+02 2.841973e+01 0 0
92dm08_25 585 6 15 -45 45 left 1 5.000000e-01 /Users/corrado/Dropbox/experiments/surprise_control_exp/stim/2_noeffect.mov 642 25-May-2018 11:04:46 4.854360e+02 3.996569e+01 0 0
92dm08_25 585 7 58 45 -45 right 1 5.000000e-01 /Users/corrado/Dropbox/experiments/surprise_control_exp/stim/8_noeffect.mov 695 25-May-2018 11:04:49 4.399122e+02 -3.989551e+02 0 0
92dm08_25 585 8 67 -45 45 left 1 5.000000e-01 /Users/corrado/Dropbox/experiments/surprise_control_exp/stim/9_noeffect.mov 746 25-May-2018 11:05:12 8.620951e+01 -4.582213e+02 0 1
92dm08_25 585 9 23 -45 45 left 1 5.000000e-01 /Users/corrado/Dropbox/experiments/surprise_control_exp/stim/3_noeffect.mov 792 25-May-2018 11:05:15 -4.757576e+02 -4.096512e+02 0 0
92dm08_25 585 10 52 -45 -45 left 1 5.000000e-01 /Users/corrado/Dropbox/experiments/surprise_control_exp/stim/7_noeffect.mov 793 25-May-2018 11:05:18 -1.393485e+02 2.689581e+02 0 0
92dm08_25 585 11 63 -45 45 left 1 5.000000e-01 /Users/corrado/Dropbox/experiments/surprise_control_exp/stim/8_noeffect.mov 742 25-May-2018 11:05:21 -3.284421e+02 2.729090e+02 0 0
92dm08_25 585 12 19 -45 45 left 1 5.000000e-01 /Users/corrado/Dropbox/experiments/surprise_control_exp/stim/2_noeffect.mov 763 25-May-2018 11:05:47 -3.648049e+02 2.944260e+00 0 1
92dm08_25 585 13 24 -45 -45 left 1 5.000000e-01 /Users/corrado/Dropbox/experiments/surprise_control_exp/stim/3_noeffect.mov 742 25-May-2018 11:05:50 2.711736e+02 -2.626094e+02 0 0
92dm08_25 585 14 2 45 -45 right 1 5.000000e-01 /Users/corrado/Dropbox/experiments/surprise_control_exp/stim/1_noeffect.mov 810 25-May-2018 11:05:54 -3.712855e+02 -1.413595e+02 0 0
92dm08_25 585 15 36 -45 -45 left 1 5.000000e-01 /Users/corrado/Dropbox/experiments/surprise_control_exp/stim/5_noeffect.mov 675 25-May-2018 11:05:57 4.329867e+02 1.844046e+02 0 0
92dm08_25 585 16 25 45 45 right 1 5.000000e-01 /Users/corrado/Dropbox/experiments/surprise_control_exp/stim/4_noeffect.mov 863 25-May-2018 11:06:15 -4.792294e+02 -2.851672e+02 0 1
92dm08_25 585 17 34 45 -45 right 1 5.000000e-01 /Users/corrado/Dropbox/experiments/surprise_control_exp/stim/5_noeffect.mov 677 25-May-2018 11:06:18 8.856063e+01 2.677841e+02 0 0
92dm08_25 585 18 71 -45 45 left 1 5.000000e-01 /Users/corrado/Dropbox/experiments/surprise_control_exp/stim/9_noeffect.mov 859 25-May-2018 11:06:21 2.654357e+02 -1.571892e+02 0 0
92dm08_25 585 19 69 45 45 right 1 5.000000e-01 /Users/corrado/Dropbox/experiments/surprise_control_exp/stim/9_noeffect.mov 610 25-May-2018 11:06:24 -5.178601e+01 2.464698e+02 0 0
92dm08_25 585 20 38 45 -45 right 1 5.000000e-01 /Users/corrado/Dropbox/experiments/surprise_control_exp/stim/5_noeffect.mov 862 25-May-2018 11:06:42 3.174826e+02 2.978695e+02 0 1
92dm08_25 585 21 43 -45 45 left 1 5.000000e-01 /Users/corrado/Dropbox/experiments/surprise_control_exp/stim/6_noeffect.mov 727 25-May-2018 11:06:45 3.036289e+02 -9.599036e+01 0 0
92dm08_25 585 22 42 45 -45 right 1 5.000000e-01 /Users/corrado/Dropbox/experiments/surprise_control_exp/stim/6_noeffect.mov 610 25-May-2018 11:06:48 3.757366e+02 -3.174614e+02 0 0
92dm08_25 585 23 18 45 -45 right 1 5.000000e-01 /Users/corrado/Dropbox/experiments/surprise_control_exp/stim/2_noeffect.mov 592 25-May-2018 11:06:51 3.162684e+02 -1.087378e+02 0 0
92dm08_25 585 24 4 -45 -45 left 1 5.000000e-01 /Users/corrado/Dropbox/experiments/surprise_control_exp/stim/1_noeffect.mov 728 25-May-2018 11:07:17 2.444478e+02 -2.907860e+02 0 1
92dm08_25 585 25 76 -45 -45 left 1 5.000000e-01 /Users/corrado/Dropbox/experiments/surprise_control_exp/stim/9_noeffect.mov 625 25-May-2018 11:07:20 3.698689e+01 -1.604957e+02 0 0
92dm08_25 585 26 26 45 -45 right 1 5.000000e-01 /Users/corrado/Dropbox/experiments/surprise_control_exp/stim/4_noeffect.mov 683 25-May-2018 11:07:23 -4.727636e+02 -3.842734e+02 0 0
92dm08_25 585 27 55 -45 45 left 1 5.000000e-01 /Users/corrado/Dropbox/experiments/surprise_control_exp/stim/7_noeffect.mov 659 25-May-2018 11:07:26 3.542424e+02 -2.865367e+02 0 0
92dm08_25 585 28 11 -45 45 left 1 5.000000e-01 /Users/corrado/Dropbox/experiments/surprise_control_exp/stim/2_noeffect.mov 813 25-May-2018 11:07:53 -1.759695e+02 -1.818983e+02 0 1
92dm08_25 585 29 80 -45 -45 left 1 5.000000e-01 /Users/corrado/Dropbox/experiments/surprise_control_exp/stim/9_noeffect.mov 709 25-May-2018 11:07:56 1.415748e+02 -7.091331e+01 0 0
92dm08_25 585 30 48 -45 -45 left 1 5.000000e-01 /Users/corrado/Dropbox/experiments/surprise_control_exp/stim/6_noeffect.mov 709 25-May-2018 11:07:59 -5.376977e+01 -5.345642e+00 0 0
92dm08_25 585 31 16 -45 -45 left 1 5.000000e-01 /Users/corrado/Dropbox/experiments/surprise_control_exp/stim/2_noeffect.mov 809 25-May-2018 11:08:02 -2.722241e+02 2.001925e+02 0 0
92dm08_25 585 32 10 45 -45 right 1 5.000000e-01 /Users/corrado/Dropbox/experiments/surprise_control_exp/stim/2_noeffect.mov 714 25-May-2018 11:08:28 2.199874e+01 2.112274e+02 0 1
92dm08_25 585 33 64 -45 -45 left 1 5.000000e-01 /Users/corrado/Dropbox/experiments/surprise_control_exp/stim/8_noeffect.mov 782 25-May-2018 11:08:31 -4.044395e+02 -4.774600e+01 0 0
92dm08_25 585 34 33 45 45 right 1 5.000000e-01 /Users/corrado/Dropbox/experiments/surprise_control_exp/stim/5_noeffect.mov 659 25-May-2018 11:08:34 2.354673e+02 2.080974e+02 0 0
92dm08_25 585 35 30 45 -45 right 1 5.000000e-01 /Users/corrado/Dropbox/experiments/surprise_control_exp/stim/4_noeffect.mov 660 25-May-2018 11:08:37 1.428215e+02 -4.766045e+01 0 0
92dm08_25 585 36 5 45 45 right 1 5.000000e-01 /Users/corrado/Dropbox/experiments/surprise_control_exp/stim/1_noeffect.mov 714 25-May-2018 11:09:04 -1.793477e+02 3.912812e+02 0 1
92dm08_25 585 37 29 45 45 right 1 5.000000e-01 /Users/corrado/Dropbox/experiments/surprise_control_exp/stim/4_noeffect.mov 793 25-May-2018 11:09:07 1.366573e+02 -4.693977e+02 0 0
92dm08_25 585 38 40 -45 -45 left 1 5.000000e-01 /Users/corrado/Dropbox/experiments/surprise_control_exp/stim/5_noeffect.mov 576 25-May-2018 11:09:10 -1.158384e+02 -4.720204e+02 0 0
92dm08_25 585 39 1 45 45 right 1 5.000000e-01 /Users/corrado/Dropbox/experiments/surprise_control_exp/stim/1_noeffect.mov 643 25-May-2018 11:09:13 4.128128e+02 -1.230632e+02 0 0
92dm08_25 585 40 35 -45 45 left 1 5.000000e-01 /Users/corrado/Dropbox/experiments/surprise_control_exp/stim/5_noeffect.mov 762 25-May-2018 11:09:30 -5.684222e+01 -4.575877e+02 0 1
92dm08_25 585 41 44 -45 -45 left 1 5.000000e-01 /Users/corrado/Dropbox/experiments/surprise_control_exp/stim/6_noeffect.mov 593 25-May-2018 11:09:33 -1.815457e+02 1.342076e+02 0 0
92dm08_25 585 42 51 -45 45 left 1 5.000000e-01 /Users/corrado/Dropbox/experiments/surprise_control_exp/stim/7_noeffect.mov 608 25-May-2018 11:09:36 2.272880e+02 3.656118e+02 0 0
92dm08_25 585 43 12 -45 -45 left 1 5.000000e-01 /Users/corrado/Dropbox/experiments/surprise_control_exp/stim/2_noeffect.mov 626 25-May-2018 11:09:39 3.769884e+01 4.405151e+02 0 0
92dm08_25 585 44 65 45 45 right 1 5.000000e-01 /Users/corrado/Dropbox/experiments/surprise_control_exp/stim/9_noeffect.mov 830 25-May-2018 11:10:02 -4.713968e+02 4.795203e+02 0 1
92dm08_25 585 45 6 45 -45 right 1 5.000000e-01 /Users/corrado/Dropbox/experiments/surprise_control_exp/stim/1_noeffect.mov 759 25-May-2018 11:10:06 -3.923307e+02 2.023485e+02 0 0
92dm08_25 585 46 59 -45 45 left 1 5.000000e-01 /Users/corrado/Dropbox/experiments/surprise_control_exp/stim/8_noeffect.mov 743 25-May-2018 11:10:09 3.927632e+02 2.917985e+01 0 0
92dm08_25 585 47 14 45 -45 right 1 5.000000e-01 /Users/corrado/Dropbox/experiments/surprise_control_exp/stim/2_noeffect.mov 625 25-May-2018 11:10:12 1.060135e+02 -5.906919e+01 0 0
92dm08_25 585 48 3 -45 45 left 1 5.000000e-01 /Users/corrado/Dropbox/experiments/surprise_control_exp/stim/1_noeffect.mov 782 25-May-2018 11:10:38 -3.421528e+02 -3.109976e+02 0 1
92dm08_25 585 49 37 45 45 right 1 5.000000e-01 /Users/corrado/Dropbox/experiments/surprise_control_exp/stim/5_noeffect.mov 676 25-May-2018 11:10:41 -3.519592e+02 -2.196297e+00 0 0
92dm08_25 585 50 61 45 45 right 1 5.000000e-01 /Users/corrado/Dropbox/experiments/surprise_control_exp/stim/8_noeffect.mov 482 25-May-2018 11:10:44 -2.489918e+02 -4.657251e+02 0 0
92dm08_25 585 51 57 45 45 right 1 5.000000e-01 /Users/corrado/Dropbox/experiments/surprise_control_exp/stim/8_noeffect.mov 610 25-May-2018 11:10:47 -4.418359e+02 3.703749e+01 0 0
92dm08_25 585 52 21 45 45 right 1 5.000000e-01 /Users/corrado/Dropbox/experiments/surprise_control_exp/stim/3_noeffect.mov 730 25-May-2018 11:11:06 1.430037e+02 -2.888288e+02 0 1
92dm08_25 585 53 9 45 45 right 1 5.000000e-01 /Users/corrado/Dropbox/experiments/surprise_control_exp/stim/2_noeffect.mov 760 25-May-2018 11:11:10 -8.181713e+01 3.109303e+02 0 0
92dm08_25 585 54 68 -45 -45 left 1 5.000000e-01 /Users/corrado/Dropbox/experiments/surprise_control_exp/stim/9_noeffect.mov 644 25-May-2018 11:11:13 -3.747830e+02 2.944740e+02 0 0
92dm08_25 585 55 46 45 -45 right 1 5.000000e-01 /Users/corrado/Dropbox/experiments/surprise_control_exp/stim/6_noeffect.mov 642 25-May-2018 11:11:16 -6.990630e+00 -1.783084e+02 0 0
92dm08_25 585 56 72 -45 -45 left 1 5.000000e-01 /Users/corrado/Dropbox/experiments/surprise_control_exp/stim/9_noeffect.mov 732 25-May-2018 11:11:39 2.421551e+01 3.990023e+02 0 1
92dm08_25 585 57 74 45 -45 right 1 5.000000e-01 /Users/corrado/Dropbox/experiments/surprise_control_exp/stim/9_noeffect.mov 625 25-May-2018 11:11:42 -1.877545e+02 -1.972412e+02 0 0
92dm08_25 585 58 7 -45 45 left 1 5.000000e-01 /Users/corrado/Dropbox/experiments/surprise_control_exp/stim/1_noeffect.mov 643 25-May-2018 11:11:45 3.102690e+02 -3.354801e+02 0 0
92dm08_25 585 59 49 45 45 right 1 5.000000e-01 /Users/corrado/Dropbox/experiments/surprise_control_exp/stim/7_noeffect.mov 451 25-May-2018 11:11:48 1.916169e+02 -3.582838e+02 0 0
92dm08_25 585 60 62 45 -45 right 1 5.000000e-01 /Users/corrado/Dropbox/experiments/surprise_control_exp/stim/8_noeffect.mov 647 25-May-2018 11:12:10 -3.294252e+02 -4.967938e+02 0 1
92dm08_25 585 61 8 -45 -45 left 1 5.000000e-01 /Users/corrado/Dropbox/experiments/surprise_control_exp/stim/1_noeffect.mov 960 25-May-2018 11:12:13 -4.968062e+02 -3.353436e+02 0 0
92dm08_25 585 62 73 45 45 right 1 5.000000e-01 /Users/corrado/Dropbox/experiments/surprise_control_exp/stim/9_noeffect.mov 732 25-May-2018 11:12:16 2.338000e+02 -2.337310e+02 0 0
92dm08_25 585 63 77 45 45 right 1 5.000000e-01 /Users/corrado/Dropbox/experiments/surprise_control_exp/stim/9_noeffect.mov 709 25-May-2018 11:12:19 -3.073873e+02 -4.703516e+02 0 0
92dm08_25 585 64 79 -45 45 left 1 5.000000e-01 /Users/corrado/Dropbox/experiments/surprise_control_exp/stim/9_noeffect.mov 713 25-May-2018 11:12:42 4.596650e+02 -4.025010e+02 0 1
92dm08_25 585 65 47 -45 45 left 1 5.000000e-01 /Users/corrado/Dropbox/experiments/surprise_control_exp/stim/6_noeffect.mov 675 25-May-2018 11:12:45 4.456622e+02 3.500616e+02 0 0
92dm08_25 585 66 13 45 45 right 1 5.000000e-01 /Users/corrado/Dropbox/experiments/surprise_control_exp/stim/2_noeffect.mov 560 25-May-2018 11:12:48 6.087425e+01 1.598093e+02 0 0
92dm08_25 585 67 20 -45 -45 left 1 5.000000e-01 /Users/corrado/Dropbox/experiments/surprise_control_exp/stim/2_noeffect.mov 525 25-May-2018 11:12:51 -3.873766e+02 -4.904529e+02 0 0
92dm08_25 585 68 60 -45 -45 left 1 5.000000e-01 /Users/corrado/Dropbox/experiments/surprise_control_exp/stim/8_noeffect.mov 832 25-May-2018 11:13:13 2.809224e+02 -4.781180e+02 0 1
92dm08_25 585 69 70 45 -45 right 1 5.000000e-01 /Users/corrado/Dropbox/experiments/surprise_control_exp/stim/9_noeffect.mov 542 25-May-2018 11:13:16 1.672518e+02 -7.418982e+01 0 0
92dm08_25 585 70 78 45 -45 right 1 5.000000e-01 /Users/corrado/Dropbox/experiments/surprise_control_exp/stim/9_noeffect.mov 709 25-May-2018 11:13:19 -3.597815e+02 2.780943e+02 0 0
92dm08_25 585 71 54 45 -45 right 1 5.000000e-01 /Users/corrado/Dropbox/experiments/surprise_control_exp/stim/7_noeffect.mov 544 25-May-2018 11:13:22 -1.924793e+02 2.952581e+02 0 0
92dm08_25 585 72 28 -45 -45 left 1 5.000000e-01 /Users/corrado/Dropbox/experiments/surprise_control_exp/stim/4_noeffect.mov 779 25-May-2018 11:13:41 1.921281e+02 -4.071309e+02 0 1
92dm08_25 585 73 27 -45 45 left 1 5.000000e-01 /Users/corrado/Dropbox/experiments/surprise_control_exp/stim/4_noeffect.mov 628 25-May-2018 11:13:43 2.538311e+02 9.448635e+01 0 0
92dm08_25 585 74 75 -45 45 left 1 5.000000e-01 /Users/corrado/Dropbox/experiments/surprise_control_exp/stim/9_noeffect.mov 611 25-May-2018 11:13:46 1.541421e+02 -4.745214e+02 0 0
92dm08_25 585 75 17 45 45 right 1 5.000000e-01 /Users/corrado/Dropbox/experiments/surprise_control_exp/stim/2_noeffect.mov 660 25-May-2018 11:13:49 4.345312e+02 3.145408e+02 0 0
92dm08_25 585 76 50 45 -45 right 1 5.000000e-01 /Users/corrado/Dropbox/experiments/surprise_control_exp/stim/7_noeffect.mov 714 25-May-2018 11:14:10 1.228272e+02 3.516770e+02 0 1
92dm08_25 585 77 31 -45 45 left 1 5.000000e-01 /Users/corrado/Dropbox/experiments/surprise_control_exp/stim/4_noeffect.mov 826 25-May-2018 11:14:13 -2.686904e+01 -4.073599e+02 0 0
92dm08_25 585 78 39 -45 45 left 1 5.000000e-01 /Users/corrado/Dropbox/experiments/surprise_control_exp/stim/5_noeffect.mov 677 25-May-2018 11:14:16 3.441120e+02 -2.528150e+02 0 0
92dm08_25 585 79 41 45 45 right 1 5.000000e-01 /Users/corrado/Dropbox/experiments/surprise_control_exp/stim/6_noeffect.mov 659 25-May-2018 11:14:19 -1.869400e+02 5.070550e+01 0 0
92dm08_25 585 80 22 45 -45 right 1 5.000000e-01 /Users/corrado/Dropbox/experiments/surprise_control_exp/stim/3_noeffect.mov 708 25-May-2018 11:14:22 -4.549806e+02 1.479554e+01 0 0
