subject_name subjectNumber iTrial unshuffled_trial targetOrientation flankersOrientation response correct onscreen_stim_duration magicShows rt date time_of_day deltaX deltaY surpriseClip isClipTrial
00LM06_M29 1 1 58 45 -45 right 1 5.000000e-01 /Users/lab/Documents/magic_control_exp/stim/8_noeffect.mov 594 18-Sep-2017 08:51:39 1.414148e+02 3.378069e+02 0 1
00LM06_M29 1 2 70 45 -45 right 1 5.000000e-01 /Users/lab/Documents/magic_control_exp/stim/9_noeffect.mov 562 18-Sep-2017 08:51:42 -2.563233e+02 -3.777486e+01 0 0
00LM06_M29 1 3 42 45 -45 right 1 5.000000e-01 /Users/lab/Documents/magic_control_exp/stim/6_noeffect.mov 476 18-Sep-2017 08:51:44 -1.009780e+02 2.854507e+02 0 0
00LM06_M29 1 4 56 -45 -45 left 1 5.000000e-01 /Users/lab/Documents/magic_control_exp/stim/7_noeffect.mov 530 18-Sep-2017 08:52:04 3.504641e+02 1.828541e+02 0 1
00LM06_M29 1 5 72 -45 -45 left 1 5.000000e-01 /Users/lab/Documents/magic_control_exp/stim/9_noeffect.mov 431 18-Sep-2017 08:52:07 -1.268658e+02 -1.774675e+02 0 0
00LM06_M29 1 6 9 45 45 right 1 5.000000e-01 /Users/lab/Documents/magic_control_exp/stim/2_noeffect.mov 513 18-Sep-2017 08:52:10 -3.063532e+02 4.689596e+02 0 0
00LM06_M29 1 7 77 45 45 right 1 5.000000e-01 /Users/lab/Documents/magic_control_exp/stim/9_noeffect.mov 548 18-Sep-2017 08:52:13 -4.320376e+02 4.788997e+02 0 0
00LM06_M29 1 8 29 45 45 right 1 5.000000e-01 /Users/lab/Documents/magic_control_exp/stim/4_noeffect.mov 530 18-Sep-2017 08:52:31 3.429451e+02 4.000767e+02 0 1
00LM06_M29 1 9 53 45 45 right 1 5.000000e-01 /Users/lab/Documents/magic_control_exp/stim/7_noeffect.mov 564 18-Sep-2017 08:52:34 -2.183853e+02 -4.091800e+01 0 0
00LM06_M29 1 10 11 -45 45 left 1 5.000000e-01 /Users/lab/Documents/magic_control_exp/stim/2_noeffect.mov 543 18-Sep-2017 08:52:37 4.323317e+02 -2.609789e+02 0 0
00LM06_M29 1 11 44 -45 -45 left 1 5.000000e-01 /Users/lab/Documents/magic_control_exp/stim/6_noeffect.mov 423 18-Sep-2017 08:52:39 -1.850812e+02 4.149325e+02 0 0
00LM06_M29 1 12 23 -45 45 left 1 5.000000e-01 /Users/lab/Documents/magic_control_exp/stim/3_noeffect.mov 512 18-Sep-2017 08:52:58 1.547226e+02 1.093548e+02 0 1
00LM06_M29 1 13 80 -45 -45 left 1 5.000000e-01 /Users/lab/Documents/magic_control_exp/stim/9_noeffect.mov 436 18-Sep-2017 08:53:01 2.166242e+02 2.989867e+02 0 0
00LM06_M29 1 14 71 -45 45 left 1 5.000000e-01 /Users/lab/Documents/magic_control_exp/stim/9_noeffect.mov 548 18-Sep-2017 08:53:04 1.182948e+02 6.292266e+01 0 0
00LM06_M29 1 15 55 -45 45 left 1 5.000000e-01 /Users/lab/Documents/magic_control_exp/stim/7_noeffect.mov 443 18-Sep-2017 08:53:07 -5.180877e+01 -3.940065e+02 0 0
00LM06_M29 1 16 6 45 -45 right 1 5.000000e-01 /Users/lab/Documents/magic_control_exp/stim/1_noeffect.mov 461 18-Sep-2017 08:53:33 -2.830134e+02 2.253063e+02 0 1
00LM06_M29 1 17 7 -45 45 left 1 5.000000e-01 /Users/lab/Documents/magic_control_exp/stim/1_noeffect.mov 488 18-Sep-2017 08:53:36 4.537421e+02 -4.626638e+02 0 0
00LM06_M29 1 18 68 -45 -45 left 1 5.000000e-01 /Users/lab/Documents/magic_control_exp/stim/9_noeffect.mov 417 18-Sep-2017 08:53:39 -8.357145e+01 -3.445790e+02 0 0
00LM06_M29 1 19 15 -45 45 left 1 5.000000e-01 /Users/lab/Documents/magic_control_exp/stim/2_noeffect.mov 579 18-Sep-2017 08:53:42 -3.837457e+02 2.500208e+02 0 0
00LM06_M29 1 20 67 -45 45 left 1 5.000000e-01 /Users/lab/Documents/magic_control_exp/stim/9_noeffect.mov 611 18-Sep-2017 08:54:04 -3.714284e+02 4.094328e+02 0 1
00LM06_M29 1 21 19 -45 45 left 1 5.000000e-01 /Users/lab/Documents/magic_control_exp/stim/2_noeffect.mov 465 18-Sep-2017 08:54:07 4.424897e+02 -2.979206e+02 0 0
00LM06_M29 1 22 36 -45 -45 left 1 5.000000e-01 /Users/lab/Documents/magic_control_exp/stim/5_noeffect.mov 404 18-Sep-2017 08:54:10 -9.323351e+01 2.257489e+02 0 0
00LM06_M29 1 23 63 -45 45 left 1 5.000000e-01 /Users/lab/Documents/magic_control_exp/stim/8_noeffect.mov 456 18-Sep-2017 08:54:13 2.274766e+02 -5.643995e+01 0 0
00LM06_M29 1 24 76 -45 -45 left 1 5.000000e-01 /Users/lab/Documents/magic_control_exp/stim/9_noeffect.mov 453 18-Sep-2017 08:54:35 -2.243038e+02 4.085893e+02 0 1
00LM06_M29 1 25 2 45 -45 right 1 5.000000e-01 /Users/lab/Documents/magic_control_exp/stim/1_noeffect.mov 532 18-Sep-2017 08:54:38 -1.853455e+02 3.328509e+02 0 0
00LM06_M29 1 26 51 -45 45 left 1 5.000000e-01 /Users/lab/Documents/magic_control_exp/stim/7_noeffect.mov 483 18-Sep-2017 08:54:41 3.608763e+02 -1.772530e+02 0 0
00LM06_M29 1 27 30 45 -45 right 1 5.000000e-01 /Users/lab/Documents/magic_control_exp/stim/4_noeffect.mov 445 18-Sep-2017 08:54:44 2.281304e+02 -2.945636e+01 0 0
00LM06_M29 1 28 10 45 -45 right 1 5.000000e-01 /Users/lab/Documents/magic_control_exp/stim/2_noeffect.mov 545 18-Sep-2017 08:55:10 -9.596309e+01 -3.020116e+02 0 1
00LM06_M29 1 29 49 45 45 right 1 5.000000e-01 /Users/lab/Documents/magic_control_exp/stim/7_noeffect.mov 377 18-Sep-2017 08:55:13 6.235727e+01 -2.792314e+02 0 0
00LM06_M29 1 30 16 -45 -45 left 1 5.000000e-01 /Users/lab/Documents/magic_control_exp/stim/2_noeffect.mov 356 18-Sep-2017 08:55:15 -7.431210e+01 2.528105e+02 0 0
00LM06_M29 1 31 8 -45 -45 left 1 5.000000e-01 /Users/lab/Documents/magic_control_exp/stim/1_noeffect.mov 457 18-Sep-2017 08:55:18 -2.387503e+02 -2.965805e+02 0 0
00LM06_M29 1 32 32 -45 -45 left 1 5.000000e-01 /Users/lab/Documents/magic_control_exp/stim/4_noeffect.mov 597 18-Sep-2017 08:55:36 -8.675307e+01 -1.624062e+01 0 1
00LM06_M29 1 33 59 -45 45 right 0 5.000000e-01 /Users/lab/Documents/magic_control_exp/stim/8_noeffect.mov 447 18-Sep-2017 08:55:39 -2.756785e+02 -2.551658e+02 0 0
00LM06_M29 1 34 31 -45 45 left 1 5.000000e-01 /Users/lab/Documents/magic_control_exp/stim/4_noeffect.mov 369 18-Sep-2017 08:55:42 -1.383523e+02 -4.191434e+00 0 0
00LM06_M29 1 35 46 45 -45 right 1 5.000000e-01 /Users/lab/Documents/magic_control_exp/stim/6_noeffect.mov 597 18-Sep-2017 08:55:44 -1.867512e+02 4.592021e+02 0 0
00LM06_M29 1 36 25 45 45 right 1 5.000000e-01 /Users/lab/Documents/magic_control_exp/stim/4_noeffect.mov 465 18-Sep-2017 08:56:02 1.332959e+02 -4.835577e+02 0 1
00LM06_M29 1 37 24 -45 -45 left 1 5.000000e-01 /Users/lab/Documents/magic_control_exp/stim/3_noeffect.mov 513 18-Sep-2017 08:56:05 4.893489e+02 1.830115e+02 0 0
00LM06_M29 1 38 73 45 45 right 1 5.000000e-01 /Users/lab/Documents/magic_control_exp/stim/9_noeffect.mov 455 18-Sep-2017 08:56:08 4.650652e+02 5.524530e+01 0 0
00LM06_M29 1 39 14 45 -45 right 1 5.000000e-01 /Users/lab/Documents/magic_control_exp/stim/2_noeffect.mov 579 18-Sep-2017 08:56:11 3.857242e+02 2.781918e+02 0 0
00LM06_M29 1 40 50 45 -45 right 1 5.000000e-01 /Users/lab/Documents/magic_control_exp/stim/7_noeffect.mov 515 18-Sep-2017 08:56:31 -4.128286e+02 -1.729752e+02 0 1
00LM06_M29 1 41 3 -45 45 left 1 5.000000e-01 /Users/lab/Documents/magic_control_exp/stim/1_noeffect.mov 548 18-Sep-2017 08:56:34 -3.961882e+02 2.171101e+02 0 0
00LM06_M29 1 42 17 45 45 right 1 5.000000e-01 /Users/lab/Documents/magic_control_exp/stim/2_noeffect.mov 352 18-Sep-2017 08:56:36 1.665263e+02 -1.259727e+02 0 0
00LM06_M29 1 43 78 45 -45 right 1 5.000000e-01 /Users/lab/Documents/magic_control_exp/stim/9_noeffect.mov 547 18-Sep-2017 08:56:39 3.993132e+02 3.775002e+02 0 0
00LM06_M29 1 44 48 -45 -45 right 0 5.000000e-01 /Users/lab/Documents/magic_control_exp/stim/6_noeffect.mov 696 18-Sep-2017 08:56:55 -4.416400e+02 1.171999e+02 0 1
00LM06_M29 1 45 54 45 -45 right 1 5.000000e-01 /Users/lab/Documents/magic_control_exp/stim/7_noeffect.mov 578 18-Sep-2017 08:56:58 -1.938765e+02 -3.865240e+02 0 0
00LM06_M29 1 46 40 -45 -45 left 1 5.000000e-01 /Users/lab/Documents/magic_control_exp/stim/5_noeffect.mov 563 18-Sep-2017 08:57:00 3.977080e+02 -2.705730e+02 0 0
00LM06_M29 1 47 64 -45 -45 left 1 5.000000e-01 /Users/lab/Documents/magic_control_exp/stim/8_noeffect.mov 476 18-Sep-2017 08:57:03 2.103958e+02 -2.889374e+02 0 0
00LM06_M29 1 48 13 45 45 right 1 5.000000e-01 /Users/lab/Documents/magic_control_exp/stim/2_noeffect.mov 528 18-Sep-2017 08:57:29 -3.743177e+02 -4.919556e+02 0 1
00LM06_M29 1 49 37 45 45 right 1 5.000000e-01 /Users/lab/Documents/magic_control_exp/stim/5_noeffect.mov 495 18-Sep-2017 08:57:32 3.833142e+02 2.390200e+02 0 0
00LM06_M29 1 50 5 45 45 right 1 5.000000e-01 /Users/lab/Documents/magic_control_exp/stim/1_noeffect.mov 694 18-Sep-2017 08:57:35 -4.856940e+02 1.164488e+02 0 0
00LM06_M29 1 51 18 45 -45 right 1 5.000000e-01 /Users/lab/Documents/magic_control_exp/stim/2_noeffect.mov 546 18-Sep-2017 08:57:38 -6.659469e+01 -1.050200e+02 0 0
00LM06_M29 1 52 33 45 45 right 1 5.000000e-01 /Users/lab/Documents/magic_control_exp/stim/5_noeffect.mov 596 18-Sep-2017 08:57:55 1.502015e+02 1.022025e+02 0 1
00LM06_M29 1 53 21 45 45 right 1 5.000000e-01 /Users/lab/Documents/magic_control_exp/stim/3_noeffect.mov 454 18-Sep-2017 08:57:58 -3.401248e+00 -4.170020e+02 0 0
00LM06_M29 1 54 65 45 45 right 1 5.000000e-01 /Users/lab/Documents/magic_control_exp/stim/9_noeffect.mov 412 18-Sep-2017 08:58:01 3.049045e+02 1.964667e+02 0 0
00LM06_M29 1 55 41 45 45 right 1 5.000000e-01 /Users/lab/Documents/magic_control_exp/stim/6_noeffect.mov 449 18-Sep-2017 08:58:04 9.022074e+01 -3.433847e+02 0 0
00LM06_M29 1 56 43 -45 45 left 1 5.000000e-01 /Users/lab/Documents/magic_control_exp/stim/6_noeffect.mov 678 18-Sep-2017 08:58:19 4.420597e+02 -2.914479e+02 0 1
00LM06_M29 1 57 35 -45 45 left 1 5.000000e-01 /Users/lab/Documents/magic_control_exp/stim/5_noeffect.mov 474 18-Sep-2017 08:58:22 1.460520e+02 -5.083836e+01 0 0
00LM06_M29 1 58 22 45 -45 right 1 5.000000e-01 /Users/lab/Documents/magic_control_exp/stim/3_noeffect.mov 471 18-Sep-2017 08:58:25 -3.950634e+01 -2.116150e+01 0 0
00LM06_M29 1 59 66 45 -45 right 1 5.000000e-01 /Users/lab/Documents/magic_control_exp/stim/9_noeffect.mov 529 18-Sep-2017 08:58:28 -2.820688e+02 -2.910156e+02 0 0
00LM06_M29 1 60 4 -45 -45 left 1 5.000000e-01 /Users/lab/Documents/magic_control_exp/stim/1_noeffect.mov 528 18-Sep-2017 08:58:54 1.157256e+02 -4.428285e+02 0 1
00LM06_M29 1 61 20 -45 -45 left 1 5.000000e-01 /Users/lab/Documents/magic_control_exp/stim/2_noeffect.mov 529 18-Sep-2017 08:58:57 4.486052e+02 4.769394e+02 0 0
00LM06_M29 1 62 45 45 45 right 1 5.000000e-01 /Users/lab/Documents/magic_control_exp/stim/6_noeffect.mov 497 18-Sep-2017 08:59:00 4.412167e+02 1.358825e+02 0 0
00LM06_M29 1 63 69 45 45 right 1 5.000000e-01 /Users/lab/Documents/magic_control_exp/stim/9_noeffect.mov 514 18-Sep-2017 08:59:02 -3.894667e+02 -3.413876e+01 0 0
00LM06_M29 1 64 61 45 45 right 1 5.000000e-01 /Users/lab/Documents/magic_control_exp/stim/8_noeffect.mov 528 18-Sep-2017 08:59:24 3.688358e+02 8.777198e+01 0 1
00LM06_M29 1 65 79 -45 45 left 1 5.000000e-01 /Users/lab/Documents/magic_control_exp/stim/9_noeffect.mov 510 18-Sep-2017 08:59:27 1.939763e+02 -1.849484e+02 0 0
00LM06_M29 1 66 12 -45 -45 left 1 5.000000e-01 /Users/lab/Documents/magic_control_exp/stim/2_noeffect.mov 467 18-Sep-2017 08:59:30 1.390113e+01 3.391154e+02 0 0
00LM06_M29 1 67 34 45 -45 right 1 5.000000e-01 /Users/lab/Documents/magic_control_exp/stim/5_noeffect.mov 474 18-Sep-2017 08:59:33 2.480538e+02 -2.977153e+02 0 0
00LM06_M29 1 68 74 45 -45 right 1 5.000000e-01 /Users/lab/Documents/magic_control_exp/stim/9_noeffect.mov 616 18-Sep-2017 08:59:56 3.326289e+02 4.465612e+02 0 1
00LM06_M29 1 69 39 -45 45 left 1 5.000000e-01 /Users/lab/Documents/magic_control_exp/stim/5_noeffect.mov 441 18-Sep-2017 08:59:59 1.342207e+02 2.693983e+02 0 0
00LM06_M29 1 70 60 -45 -45 left 1 5.000000e-01 /Users/lab/Documents/magic_control_exp/stim/8_noeffect.mov 562 18-Sep-2017 09:00:01 -2.089427e+02 -3.923232e+02 0 0
00LM06_M29 1 71 62 45 -45 right 1 5.000000e-01 /Users/lab/Documents/magic_control_exp/stim/8_noeffect.mov 420 18-Sep-2017 09:00:04 4.065808e+02 -4.924554e+02 0 0
00LM06_M29 1 72 75 -45 45 left 1 5.000000e-01 /Users/lab/Documents/magic_control_exp/stim/9_noeffect.mov 564 18-Sep-2017 09:00:27 -2.112341e+01 -2.201333e+01 0 1
00LM06_M29 1 73 47 -45 45 left 1 5.000000e-01 /Users/lab/Documents/magic_control_exp/stim/6_noeffect.mov 628 18-Sep-2017 09:00:30 -2.345777e+02 1.963195e+02 0 0
00LM06_M29 1 74 52 -45 -45 left 1 5.000000e-01 /Users/lab/Documents/magic_control_exp/stim/7_noeffect.mov 514 18-Sep-2017 09:00:33 4.402212e+02 1.660647e+02 0 0
00LM06_M29 1 75 1 45 45 right 1 5.000000e-01 /Users/lab/Documents/magic_control_exp/stim/1_noeffect.mov 483 18-Sep-2017 09:00:36 3.920760e+02 -2.966752e+02 0 0
00LM06_M29 1 76 28 -45 -45 left 1 5.000000e-01 /Users/lab/Documents/magic_control_exp/stim/4_noeffect.mov 577 18-Sep-2017 09:00:54 3.453876e+02 -4.605442e+02 0 1
00LM06_M29 1 77 57 45 45 right 1 5.000000e-01 /Users/lab/Documents/magic_control_exp/stim/8_noeffect.mov 484 18-Sep-2017 09:00:56 -2.852587e+02 -1.182594e+02 0 0
00LM06_M29 1 78 26 45 -45 right 1 5.000000e-01 /Users/lab/Documents/magic_control_exp/stim/4_noeffect.mov 581 18-Sep-2017 09:00:59 4.668539e+01 1.836482e+02 0 0
00LM06_M29 1 79 38 45 -45 right 1 5.000000e-01 /Users/lab/Documents/magic_control_exp/stim/5_noeffect.mov 628 18-Sep-2017 09:01:02 -3.287849e+02 4.669286e+02 0 0
00LM06_M29 1 80 27 -45 45 right 0 5.000000e-01 /Users/lab/Documents/magic_control_exp/stim/4_noeffect.mov 781 18-Sep-2017 09:01:05 1.886217e+02 -4.755881e+02 0 0
