subject_name subjectNumber iTrial unshuffled_trial targetOrientation flankersOrientation response correct onscreen_stim_duration magicShows rt date time_of_day deltaX deltaY surpriseClip isClipTrial
95et10_19 570 1 51 -45 45 left 1 5.000000e-01 /Users/corrado/Dropbox/experiments/surprise_control_exp/stim/7_noeffect.mov 612 23-May-2018 11:00:38 -3.680902e+01 -4.917094e+02 0 1
95et10_19 570 2 23 -45 45 left 1 5.000000e-01 /Users/corrado/Dropbox/experiments/surprise_control_exp/stim/3_noeffect.mov 542 23-May-2018 11:00:41 -4.220547e+02 -3.986008e+02 0 0
95et10_19 570 3 14 45 -45 right 1 5.000000e-01 /Users/corrado/Dropbox/experiments/surprise_control_exp/stim/2_noeffect.mov 710 23-May-2018 11:00:44 4.031979e+02 -2.367773e+02 0 0
95et10_19 570 4 42 45 -45 right 1 5.000000e-01 /Users/corrado/Dropbox/experiments/surprise_control_exp/stim/6_noeffect.mov 979 23-May-2018 11:01:00 4.662366e+02 -2.931797e+02 0 1
95et10_19 570 5 28 -45 -45 left 1 5.000000e-01 /Users/corrado/Dropbox/experiments/surprise_control_exp/stim/4_noeffect.mov 644 23-May-2018 11:01:03 -3.807791e+02 -9.548945e+00 0 0
95et10_19 570 6 47 -45 45 left 1 5.000000e-01 /Users/corrado/Dropbox/experiments/surprise_control_exp/stim/6_noeffect.mov 560 23-May-2018 11:01:05 4.100224e+02 -2.206318e+02 0 0
95et10_19 570 7 48 -45 -45 left 1 5.000000e-01 /Users/corrado/Dropbox/experiments/surprise_control_exp/stim/6_noeffect.mov 497 23-May-2018 11:01:08 -1.587107e+02 -1.895300e+00 0 0
95et10_19 570 8 79 -45 45 left 1 5.000000e-01 /Users/corrado/Dropbox/experiments/surprise_control_exp/stim/9_noeffect.mov 1113 23-May-2018 11:01:32 4.502115e+02 3.546040e+02 0 1
95et10_19 570 9 15 -45 45 left 1 5.000000e-01 /Users/corrado/Dropbox/experiments/surprise_control_exp/stim/2_noeffect.mov 488 23-May-2018 11:01:34 1.167640e+02 1.611057e+02 0 0
95et10_19 570 10 46 45 -45 right 1 5.000000e-01 /Users/corrado/Dropbox/experiments/surprise_control_exp/stim/6_noeffect.mov 608 23-May-2018 11:01:37 4.479875e+02 1.834627e+02 0 0
95et10_19 570 11 62 45 -45 right 1 5.000000e-01 /Users/corrado/Dropbox/experiments/surprise_control_exp/stim/8_noeffect.mov 470 23-May-2018 11:01:40 -3.065573e+02 2.153618e+02 0 0
95et10_19 570 12 54 45 -45 right 1 5.000000e-01 /Users/corrado/Dropbox/experiments/surprise_control_exp/stim/7_noeffect.mov 1195 23-May-2018 11:02:01 1.311198e+02 -3.536052e+02 0 1
95et10_19 570 13 21 45 45 right 1 5.000000e-01 /Users/corrado/Dropbox/experiments/surprise_control_exp/stim/3_noeffect.mov 533 23-May-2018 11:02:04 4.657526e+02 -4.047557e+02 0 0
95et10_19 570 14 68 -45 -45 right 0 5.000000e-01 /Users/corrado/Dropbox/experiments/surprise_control_exp/stim/9_noeffect.mov 593 23-May-2018 11:02:07 -1.640133e+02 -3.440586e+02 0 0
95et10_19 570 15 19 -45 45 left 1 5.000000e-01 /Users/corrado/Dropbox/experiments/surprise_control_exp/stim/2_noeffect.mov 558 23-May-2018 11:02:10 3.143023e+02 9.970595e+01 0 0
95et10_19 570 16 40 -45 -45 left 1 5.000000e-01 /Users/corrado/Dropbox/experiments/surprise_control_exp/stim/5_noeffect.mov 1230 23-May-2018 11:02:28 4.799697e+02 -4.816368e+02 0 1
95et10_19 570 17 59 -45 45 left 1 5.000000e-01 /Users/corrado/Dropbox/experiments/surprise_control_exp/stim/8_noeffect.mov 593 23-May-2018 11:02:30 4.306457e+02 -3.179460e+02 0 0
95et10_19 570 18 36 -45 -45 left 1 5.000000e-01 /Users/corrado/Dropbox/experiments/surprise_control_exp/stim/5_noeffect.mov 542 23-May-2018 11:02:33 6.346491e+01 -3.186076e+02 0 0
95et10_19 570 19 75 -45 45 left 1 5.000000e-01 /Users/corrado/Dropbox/experiments/surprise_control_exp/stim/9_noeffect.mov 550 23-May-2018 11:02:36 -2.587904e+02 4.252556e+02 0 0
95et10_19 570 20 52 -45 -45 left 1 5.000000e-01 /Users/corrado/Dropbox/experiments/surprise_control_exp/stim/7_noeffect.mov 582 23-May-2018 11:02:56 1.690037e+02 3.211036e+02 0 1
95et10_19 570 21 7 -45 45 left 1 5.000000e-01 /Users/corrado/Dropbox/experiments/surprise_control_exp/stim/1_noeffect.mov 508 23-May-2018 11:02:59 5.520384e+01 8.462881e+01 0 0
95et10_19 570 22 73 45 45 right 1 5.000000e-01 /Users/corrado/Dropbox/experiments/surprise_control_exp/stim/9_noeffect.mov 808 23-May-2018 11:03:02 -2.338449e+02 -4.116866e+02 0 0
95et10_19 570 23 29 45 45 right 1 5.000000e-01 /Users/corrado/Dropbox/experiments/surprise_control_exp/stim/4_noeffect.mov 559 23-May-2018 11:03:05 4.316575e+02 -3.420734e+02 0 0
95et10_19 570 24 24 -45 -45 left 1 5.000000e-01 /Users/corrado/Dropbox/experiments/surprise_control_exp/stim/3_noeffect.mov 612 23-May-2018 11:03:24 -4.851376e+02 4.018623e+02 0 1
95et10_19 570 25 77 45 45 right 1 5.000000e-01 /Users/corrado/Dropbox/experiments/surprise_control_exp/stim/9_noeffect.mov 676 23-May-2018 11:03:27 -3.655975e+02 2.823627e+02 0 0
95et10_19 570 26 8 -45 -45 left 1 5.000000e-01 /Users/corrado/Dropbox/experiments/surprise_control_exp/stim/1_noeffect.mov 642 23-May-2018 11:03:30 3.833750e+02 -7.473824e+00 0 0
95et10_19 570 27 80 -45 -45 left 1 5.000000e-01 /Users/corrado/Dropbox/experiments/surprise_control_exp/stim/9_noeffect.mov 472 23-May-2018 11:03:33 -1.439983e+02 4.575198e+02 0 0
95et10_19 570 28 41 45 45 right 1 5.000000e-01 /Users/corrado/Dropbox/experiments/surprise_control_exp/stim/6_noeffect.mov 713 23-May-2018 11:03:49 -4.174259e+02 -3.372607e+02 0 1
95et10_19 570 29 39 -45 45 left 1 5.000000e-01 /Users/corrado/Dropbox/experiments/surprise_control_exp/stim/5_noeffect.mov 560 23-May-2018 11:03:52 -4.691004e+02 -7.620799e+01 0 0
95et10_19 570 30 20 -45 -45 left 1 5.000000e-01 /Users/corrado/Dropbox/experiments/surprise_control_exp/stim/2_noeffect.mov 659 23-May-2018 11:03:55 2.535296e+02 -9.316178e+01 0 0
95et10_19 570 31 30 45 -45 right 1 5.000000e-01 /Users/corrado/Dropbox/experiments/surprise_control_exp/stim/4_noeffect.mov 517 23-May-2018 11:03:58 1.682656e+02 2.069442e+02 0 0
95et10_19 570 32 2 45 -45 right 1 5.000000e-01 /Users/corrado/Dropbox/experiments/surprise_control_exp/stim/1_noeffect.mov 580 23-May-2018 11:04:24 1.511546e+02 -2.730806e+02 0 1
95et10_19 570 33 3 -45 45 left 1 5.000000e-01 /Users/corrado/Dropbox/experiments/surprise_control_exp/stim/1_noeffect.mov 477 23-May-2018 11:04:27 2.090760e+02 2.025325e+02 0 0
95et10_19 570 34 34 45 -45 right 1 5.000000e-01 /Users/corrado/Dropbox/experiments/surprise_control_exp/stim/5_noeffect.mov 682 23-May-2018 11:04:30 -1.712973e+02 1.906906e+02 0 0
95et10_19 570 35 50 45 -45 right 1 5.000000e-01 /Users/corrado/Dropbox/experiments/surprise_control_exp/stim/7_noeffect.mov 560 23-May-2018 11:04:32 -4.372828e+02 -4.684349e+02 0 0
95et10_19 570 36 11 -45 45 left 1 5.000000e-01 /Users/corrado/Dropbox/experiments/surprise_control_exp/stim/2_noeffect.mov 596 23-May-2018 11:04:59 4.192691e+02 1.231084e+01 0 1
95et10_19 570 37 66 45 -45 right 1 5.000000e-01 /Users/corrado/Dropbox/experiments/surprise_control_exp/stim/9_noeffect.mov 560 23-May-2018 11:05:02 2.625584e+02 3.800089e+02 0 0
95et10_19 570 38 53 45 45 right 1 5.000000e-01 /Users/corrado/Dropbox/experiments/surprise_control_exp/stim/7_noeffect.mov 462 23-May-2018 11:05:04 4.851810e+02 4.339266e+02 0 0
95et10_19 570 39 76 -45 -45 left 1 5.000000e-01 /Users/corrado/Dropbox/experiments/surprise_control_exp/stim/9_noeffect.mov 403 23-May-2018 11:05:07 -1.939709e+02 3.561388e+02 0 0
95et10_19 570 40 10 45 -45 right 1 5.000000e-01 /Users/corrado/Dropbox/experiments/surprise_control_exp/stim/2_noeffect.mov 812 23-May-2018 11:05:33 1.044030e+02 -2.718246e+02 0 1
95et10_19 570 41 31 -45 45 left 1 5.000000e-01 /Users/corrado/Dropbox/experiments/surprise_control_exp/stim/4_noeffect.mov 543 23-May-2018 11:05:36 2.940968e+02 2.518996e+02 0 0
95et10_19 570 42 33 45 45 right 1 5.000000e-01 /Users/corrado/Dropbox/experiments/surprise_control_exp/stim/5_noeffect.mov 709 23-May-2018 11:05:39 2.753567e+02 -1.456243e+01 0 0
95et10_19 570 43 32 -45 -45 left 1 5.000000e-01 /Users/corrado/Dropbox/experiments/surprise_control_exp/stim/4_noeffect.mov 593 23-May-2018 11:05:42 -9.763866e+01 2.184018e+02 0 0
95et10_19 570 44 65 45 45 right 1 5.000000e-01 /Users/corrado/Dropbox/experiments/surprise_control_exp/stim/9_noeffect.mov 680 23-May-2018 11:06:05 -2.608754e+02 4.893905e+02 0 1
95et10_19 570 45 13 45 45 left 0 5.000000e-01 /Users/corrado/Dropbox/experiments/surprise_control_exp/stim/2_noeffect.mov 490 23-May-2018 11:06:08 -2.154883e+02 -1.293024e+02 0 0
95et10_19 570 46 71 -45 45 left 1 5.000000e-01 /Users/corrado/Dropbox/experiments/surprise_control_exp/stim/9_noeffect.mov 560 23-May-2018 11:06:11 7.903345e+01 -9.023432e+01 0 0
95et10_19 570 47 22 45 -45 right 1 5.000000e-01 /Users/corrado/Dropbox/experiments/surprise_control_exp/stim/3_noeffect.mov 601 23-May-2018 11:06:14 1.306130e+02 1.348077e+02 0 0
95et10_19 570 48 74 45 -45 right 1 5.000000e-01 /Users/corrado/Dropbox/experiments/surprise_control_exp/stim/9_noeffect.mov 631 23-May-2018 11:06:37 -4.555046e+02 -1.558361e+02 0 1
95et10_19 570 49 61 45 45 right 1 5.000000e-01 /Users/corrado/Dropbox/experiments/surprise_control_exp/stim/8_noeffect.mov 758 23-May-2018 11:06:40 -2.475513e+02 -4.933848e+02 0 0
95et10_19 570 50 1 45 45 right 1 5.000000e-01 /Users/corrado/Dropbox/experiments/surprise_control_exp/stim/1_noeffect.mov 609 23-May-2018 11:06:43 3.713202e+02 -3.161659e+02 0 0
95et10_19 570 51 58 45 -45 right 1 5.000000e-01 /Users/corrado/Dropbox/experiments/surprise_control_exp/stim/8_noeffect.mov 641 23-May-2018 11:06:46 5.110798e+01 1.920066e+02 0 0
95et10_19 570 52 67 -45 45 left 1 5.000000e-01 /Users/corrado/Dropbox/experiments/surprise_control_exp/stim/9_noeffect.mov 614 23-May-2018 11:07:09 1.491423e+02 2.248828e+02 0 1
95et10_19 570 53 78 45 -45 right 1 5.000000e-01 /Users/corrado/Dropbox/experiments/surprise_control_exp/stim/9_noeffect.mov 627 23-May-2018 11:07:12 4.417643e+02 2.487742e+02 0 0
95et10_19 570 54 70 45 -45 right 1 5.000000e-01 /Users/corrado/Dropbox/experiments/surprise_control_exp/stim/9_noeffect.mov 732 23-May-2018 11:07:15 1.263006e+02 3.014776e+02 0 0
95et10_19 570 55 63 -45 45 left 1 5.000000e-01 /Users/corrado/Dropbox/experiments/surprise_control_exp/stim/8_noeffect.mov 490 23-May-2018 11:07:18 -1.203672e+01 -1.970825e+02 0 0
95et10_19 570 56 5 45 45 right 1 5.000000e-01 /Users/corrado/Dropbox/experiments/surprise_control_exp/stim/1_noeffect.mov 846 23-May-2018 11:07:44 -3.106681e+02 2.231137e+01 0 1
95et10_19 570 57 16 -45 -45 left 1 5.000000e-01 /Users/corrado/Dropbox/experiments/surprise_control_exp/stim/2_noeffect.mov 659 23-May-2018 11:07:47 6.078174e+01 4.175266e+02 0 0
95et10_19 570 58 38 45 -45 right 1 5.000000e-01 /Users/corrado/Dropbox/experiments/surprise_control_exp/stim/5_noeffect.mov 465 23-May-2018 11:07:50 2.298786e+02 1.791316e+02 0 0
95et10_19 570 59 25 45 45 right 1 5.000000e-01 /Users/corrado/Dropbox/experiments/surprise_control_exp/stim/4_noeffect.mov 431 23-May-2018 11:07:53 5.076342e+01 9.155340e+01 0 0
95et10_19 570 60 57 45 45 right 1 5.000000e-01 /Users/corrado/Dropbox/experiments/surprise_control_exp/stim/8_noeffect.mov 491 23-May-2018 11:08:15 1.979845e+02 4.791077e+02 0 1
95et10_19 570 61 69 45 45 right 1 5.000000e-01 /Users/corrado/Dropbox/experiments/surprise_control_exp/stim/9_noeffect.mov 543 23-May-2018 11:08:18 1.936103e+02 -8.230841e+00 0 0
95et10_19 570 62 37 45 45 right 1 5.000000e-01 /Users/corrado/Dropbox/experiments/surprise_control_exp/stim/5_noeffect.mov 725 23-May-2018 11:08:21 4.963374e+02 -1.204183e+02 0 0
95et10_19 570 63 64 -45 -45 left 1 5.000000e-01 /Users/corrado/Dropbox/experiments/surprise_control_exp/stim/8_noeffect.mov 675 23-May-2018 11:08:24 1.773314e+02 2.807280e+02 0 0
95et10_19 570 64 18 45 -45 right 1 5.000000e-01 /Users/corrado/Dropbox/experiments/surprise_control_exp/stim/2_noeffect.mov 545 23-May-2018 11:08:50 2.004318e+02 -3.808199e+02 0 1
95et10_19 570 65 35 -45 45 left 1 5.000000e-01 /Users/corrado/Dropbox/experiments/surprise_control_exp/stim/5_noeffect.mov 642 23-May-2018 11:08:53 4.484995e+02 -4.867433e+02 0 0
95et10_19 570 66 44 -45 -45 left 1 5.000000e-01 /Users/corrado/Dropbox/experiments/surprise_control_exp/stim/6_noeffect.mov 499 23-May-2018 11:08:55 4.114594e+02 7.733767e+01 0 0
95et10_19 570 67 6 45 -45 right 1 5.000000e-01 /Users/corrado/Dropbox/experiments/surprise_control_exp/stim/1_noeffect.mov 463 23-May-2018 11:08:58 4.997538e+02 -8.484826e+01 0 0
95et10_19 570 68 49 45 45 right 1 5.000000e-01 /Users/corrado/Dropbox/experiments/surprise_control_exp/stim/7_noeffect.mov 613 23-May-2018 11:09:18 -3.852037e+02 -4.259093e+02 0 1
95et10_19 570 69 4 -45 -45 left 1 5.000000e-01 /Users/corrado/Dropbox/experiments/surprise_control_exp/stim/1_noeffect.mov 743 23-May-2018 11:09:21 -1.891535e+02 1.068606e+02 0 0
95et10_19 570 70 45 45 45 right 1 5.000000e-01 /Users/corrado/Dropbox/experiments/surprise_control_exp/stim/6_noeffect.mov 516 23-May-2018 11:09:24 8.475574e+01 -7.645240e+01 0 0
95et10_19 570 71 56 -45 -45 left 1 5.000000e-01 /Users/corrado/Dropbox/experiments/surprise_control_exp/stim/7_noeffect.mov 660 23-May-2018 11:09:27 2.921594e+02 -4.235097e+02 0 0
95et10_19 570 72 12 -45 -45 left 1 5.000000e-01 /Users/corrado/Dropbox/experiments/surprise_control_exp/stim/2_noeffect.mov 929 23-May-2018 11:09:54 -4.994789e+02 -7.389395e+01 0 1
95et10_19 570 73 27 -45 45 left 1 5.000000e-01 /Users/corrado/Dropbox/experiments/surprise_control_exp/stim/4_noeffect.mov 578 23-May-2018 11:09:56 -4.506022e+02 3.976354e+02 0 0
95et10_19 570 74 9 45 45 right 1 5.000000e-01 /Users/corrado/Dropbox/experiments/surprise_control_exp/stim/2_noeffect.mov 825 23-May-2018 11:10:00 -3.117607e+02 -1.733098e+02 0 0
95et10_19 570 75 72 -45 -45 left 1 5.000000e-01 /Users/corrado/Dropbox/experiments/surprise_control_exp/stim/9_noeffect.mov 550 23-May-2018 11:10:02 -4.655105e+02 1.273458e+02 0 0
95et10_19 570 76 26 45 -45 right 1 5.000000e-01 /Users/corrado/Dropbox/experiments/surprise_control_exp/stim/4_noeffect.mov 614 23-May-2018 11:10:20 -2.404223e+02 1.165645e+02 0 1
95et10_19 570 77 17 45 45 right 1 5.000000e-01 /Users/corrado/Dropbox/experiments/surprise_control_exp/stim/2_noeffect.mov 674 23-May-2018 11:10:23 -4.212842e+02 -2.015025e+02 0 0
95et10_19 570 78 60 -45 -45 right 0 5.000000e-01 /Users/corrado/Dropbox/experiments/surprise_control_exp/stim/8_noeffect.mov 482 23-May-2018 11:10:26 1.952379e+01 3.303259e+02 0 0
95et10_19 570 79 55 -45 45 left 1 5.000000e-01 /Users/corrado/Dropbox/experiments/surprise_control_exp/stim/7_noeffect.mov 609 23-May-2018 11:10:29 -4.550510e+02 -2.965677e+02 0 0
95et10_19 570 80 43 -45 45 left 1 5.000000e-01 /Users/corrado/Dropbox/experiments/surprise_control_exp/stim/6_noeffect.mov 576 23-May-2018 11:10:32 -1.123232e+02 -9.882524e+01 0 0
