subject_name subjectNumber iTrial unshuffled_trial targetOrientation flankersOrientation response correct onscreen_stim_duration magicShows rt date time_of_day deltaX deltaY surpriseClip isClipTrial
14AG19_F24 3 1 15 -45 45 left 1 5.000000e-01 /Users/lab/Documents/magic_control_exp/stim/2_noeffect.mov 632 27-Sep-2017 09:24:35 -1.094833e+02 -2.311029e+02 0 1
14AG19_F24 3 2 20 -45 -45 left 1 5.000000e-01 /Users/lab/Documents/magic_control_exp/stim/2_noeffect.mov 512 27-Sep-2017 09:24:38 7.132777e+01 -4.074878e+02 0 0
14AG19_F24 3 3 50 45 -45 right 1 5.000000e-01 /Users/lab/Documents/magic_control_exp/stim/7_noeffect.mov 532 27-Sep-2017 09:24:41 -2.077583e+02 -1.208943e+02 0 0
14AG19_F24 3 4 60 -45 -45 left 1 5.000000e-01 /Users/lab/Documents/magic_control_exp/stim/8_noeffect.mov 630 27-Sep-2017 09:25:03 -3.157828e+01 -1.385577e+02 0 1
14AG19_F24 3 5 37 45 45 right 1 5.000000e-01 /Users/lab/Documents/magic_control_exp/stim/5_noeffect.mov 602 27-Sep-2017 09:25:06 -2.864478e+02 6.761916e+01 0 0
14AG19_F24 3 6 31 -45 45 left 1 5.000000e-01 /Users/lab/Documents/magic_control_exp/stim/4_noeffect.mov 561 27-Sep-2017 09:25:09 6.290351e+01 2.019041e+02 0 0
14AG19_F24 3 7 35 -45 45 left 1 5.000000e-01 /Users/lab/Documents/magic_control_exp/stim/5_noeffect.mov 544 27-Sep-2017 09:25:12 1.659208e+02 3.658017e+02 0 0
14AG19_F24 3 8 47 -45 45 left 1 5.000000e-01 /Users/lab/Documents/magic_control_exp/stim/6_noeffect.mov 714 27-Sep-2017 09:25:27 4.234612e+02 2.726570e+02 0 1
14AG19_F24 3 9 65 45 45 right 1 5.000000e-01 /Users/lab/Documents/magic_control_exp/stim/9_noeffect.mov 510 27-Sep-2017 09:25:30 2.110505e+02 1.354016e+02 0 0
14AG19_F24 3 10 30 45 -45 right 1 5.000000e-01 /Users/lab/Documents/magic_control_exp/stim/4_noeffect.mov 660 27-Sep-2017 09:25:33 3.818431e+01 2.972966e+02 0 0
14AG19_F24 3 11 44 -45 -45 left 1 5.000000e-01 /Users/lab/Documents/magic_control_exp/stim/6_noeffect.mov 457 27-Sep-2017 09:25:36 -1.090977e+02 -2.086607e+02 0 0
14AG19_F24 3 12 76 -45 -45 left 1 5.000000e-01 /Users/lab/Documents/magic_control_exp/stim/9_noeffect.mov 632 27-Sep-2017 09:25:59 6.780062e+00 -7.103541e+01 0 1
14AG19_F24 3 13 69 45 45 right 1 5.000000e-01 /Users/lab/Documents/magic_control_exp/stim/9_noeffect.mov 594 27-Sep-2017 09:26:02 -4.659797e+02 3.854096e+02 0 0
14AG19_F24 3 14 58 45 -45 right 1 5.000000e-01 /Users/lab/Documents/magic_control_exp/stim/8_noeffect.mov 610 27-Sep-2017 09:26:05 -2.658778e+02 4.785138e+02 0 0
14AG19_F24 3 15 77 45 45 right 1 5.000000e-01 /Users/lab/Documents/magic_control_exp/stim/9_noeffect.mov 487 27-Sep-2017 09:26:08 -3.467474e+02 -2.870008e+02 0 0
14AG19_F24 3 16 2 45 -45 right 1 5.000000e-01 /Users/lab/Documents/magic_control_exp/stim/1_noeffect.mov 731 27-Sep-2017 09:26:34 3.645716e+02 -2.696873e+02 0 1
14AG19_F24 3 17 29 45 45 right 1 5.000000e-01 /Users/lab/Documents/magic_control_exp/stim/4_noeffect.mov 527 27-Sep-2017 09:26:37 -4.657164e+02 -4.237851e+02 0 0
14AG19_F24 3 18 42 45 -45 right 1 5.000000e-01 /Users/lab/Documents/magic_control_exp/stim/6_noeffect.mov 527 27-Sep-2017 09:26:40 -2.000717e+02 -1.539791e+02 0 0
14AG19_F24 3 19 13 45 45 right 1 5.000000e-01 /Users/lab/Documents/magic_control_exp/stim/2_noeffect.mov 463 27-Sep-2017 09:26:43 -2.638238e+02 4.716956e+02 0 0
14AG19_F24 3 20 41 45 45 right 1 5.000000e-01 /Users/lab/Documents/magic_control_exp/stim/6_noeffect.mov 581 27-Sep-2017 09:26:58 9.922927e+01 7.688515e+01 0 1
14AG19_F24 3 21 4 -45 -45 left 1 5.000000e-01 /Users/lab/Documents/magic_control_exp/stim/1_noeffect.mov 594 27-Sep-2017 09:27:01 4.215364e+02 -2.807958e+01 0 0
14AG19_F24 3 22 57 45 45 right 1 5.000000e-01 /Users/lab/Documents/magic_control_exp/stim/8_noeffect.mov 560 27-Sep-2017 09:27:04 8.810508e+01 3.166423e+02 0 0
14AG19_F24 3 23 8 -45 -45 left 1 5.000000e-01 /Users/lab/Documents/magic_control_exp/stim/1_noeffect.mov 498 27-Sep-2017 09:27:07 -2.613852e+02 -2.922577e+02 0 0
14AG19_F24 3 24 39 -45 45 left 1 5.000000e-01 /Users/lab/Documents/magic_control_exp/stim/5_noeffect.mov 749 27-Sep-2017 09:27:24 4.533147e+02 3.548525e+02 0 1
14AG19_F24 3 25 72 -45 -45 left 1 5.000000e-01 /Users/lab/Documents/magic_control_exp/stim/9_noeffect.mov 561 27-Sep-2017 09:27:27 3.159970e+02 -3.308387e+02 0 0
14AG19_F24 3 26 55 -45 45 left 1 5.000000e-01 /Users/lab/Documents/magic_control_exp/stim/7_noeffect.mov 843 27-Sep-2017 09:27:30 -4.642830e+02 5.697238e+00 0 0
14AG19_F24 3 27 46 45 -45 right 1 5.000000e-01 /Users/lab/Documents/magic_control_exp/stim/6_noeffect.mov 454 27-Sep-2017 09:27:33 5.585587e+01 -4.356294e+02 0 0
14AG19_F24 3 28 19 -45 45 left 1 5.000000e-01 /Users/lab/Documents/magic_control_exp/stim/2_noeffect.mov 664 27-Sep-2017 09:27:59 -2.339109e+02 -2.330656e+02 0 1
14AG19_F24 3 29 21 45 45 right 1 5.000000e-01 /Users/lab/Documents/magic_control_exp/stim/3_noeffect.mov 560 27-Sep-2017 09:28:02 3.256276e+02 -6.028640e+01 0 0
14AG19_F24 3 30 22 45 -45 right 1 5.000000e-01 /Users/lab/Documents/magic_control_exp/stim/3_noeffect.mov 593 27-Sep-2017 09:28:05 2.030259e+02 2.256627e+00 0 0
14AG19_F24 3 31 43 -45 45 left 1 5.000000e-01 /Users/lab/Documents/magic_control_exp/stim/6_noeffect.mov 499 27-Sep-2017 09:28:08 2.396646e+02 2.235683e+02 0 0
14AG19_F24 3 32 17 45 45 right 1 5.000000e-01 /Users/lab/Documents/magic_control_exp/stim/2_noeffect.mov 580 27-Sep-2017 09:28:34 4.730806e+02 6.305006e+01 0 1
14AG19_F24 3 33 24 -45 -45 left 1 5.000000e-01 /Users/lab/Documents/magic_control_exp/stim/3_noeffect.mov 468 27-Sep-2017 09:28:37 3.192413e+01 4.305960e+02 0 0
14AG19_F24 3 34 71 -45 45 left 1 5.000000e-01 /Users/lab/Documents/magic_control_exp/stim/9_noeffect.mov 577 27-Sep-2017 09:28:40 4.972908e+02 1.958661e+02 0 0
14AG19_F24 3 35 33 45 45 right 1 5.000000e-01 /Users/lab/Documents/magic_control_exp/stim/5_noeffect.mov 472 27-Sep-2017 09:28:43 1.941690e+02 -1.699973e+02 0 0
14AG19_F24 3 36 27 -45 45 left 1 5.000000e-01 /Users/lab/Documents/magic_control_exp/stim/4_noeffect.mov 597 27-Sep-2017 09:29:01 -2.967075e+02 3.481069e+02 0 1
14AG19_F24 3 37 75 -45 45 left 1 5.000000e-01 /Users/lab/Documents/magic_control_exp/stim/9_noeffect.mov 578 27-Sep-2017 09:29:04 3.467315e+02 3.384851e+02 0 0
14AG19_F24 3 38 48 -45 -45 left 1 5.000000e-01 /Users/lab/Documents/magic_control_exp/stim/6_noeffect.mov 453 27-Sep-2017 09:29:06 2.959641e+02 2.561858e+01 0 0
14AG19_F24 3 39 40 -45 -45 left 1 5.000000e-01 /Users/lab/Documents/magic_control_exp/stim/5_noeffect.mov 435 27-Sep-2017 09:29:09 6.852622e+01 -1.321492e+02 0 0
14AG19_F24 3 40 16 -45 -45 left 1 5.000000e-01 /Users/lab/Documents/magic_control_exp/stim/2_noeffect.mov 599 27-Sep-2017 09:29:35 4.496184e+02 -4.411328e+02 0 1
14AG19_F24 3 41 52 -45 -45 left 1 5.000000e-01 /Users/lab/Documents/magic_control_exp/stim/7_noeffect.mov 527 27-Sep-2017 09:29:38 2.274239e+02 -4.652356e+02 0 0
14AG19_F24 3 42 63 -45 45 left 1 5.000000e-01 /Users/lab/Documents/magic_control_exp/stim/8_noeffect.mov 811 27-Sep-2017 09:29:41 4.726862e+02 4.966241e+02 0 0
14AG19_F24 3 43 70 45 -45 right 1 5.000000e-01 /Users/lab/Documents/magic_control_exp/stim/9_noeffect.mov 677 27-Sep-2017 09:29:44 -3.506604e+02 -2.617800e+02 0 0
14AG19_F24 3 44 73 45 45 right 1 5.000000e-01 /Users/lab/Documents/magic_control_exp/stim/9_noeffect.mov 582 27-Sep-2017 09:30:07 1.849799e+02 -4.274934e+02 0 1
14AG19_F24 3 45 51 -45 45 left 1 5.000000e-01 /Users/lab/Documents/magic_control_exp/stim/7_noeffect.mov 627 27-Sep-2017 09:30:10 -4.667698e+02 2.169570e+02 0 0
14AG19_F24 3 46 28 -45 -45 left 1 5.000000e-01 /Users/lab/Documents/magic_control_exp/stim/4_noeffect.mov 578 27-Sep-2017 09:30:13 -1.854860e+01 -2.972498e+02 0 0
14AG19_F24 3 47 6 45 -45 right 1 5.000000e-01 /Users/lab/Documents/magic_control_exp/stim/1_noeffect.mov 543 27-Sep-2017 09:30:16 -3.175194e+02 -7.718048e-01 0 0
14AG19_F24 3 48 26 45 -45 right 1 5.000000e-01 /Users/lab/Documents/magic_control_exp/stim/4_noeffect.mov 683 27-Sep-2017 09:30:34 4.997604e+01 -4.957101e+02 0 1
14AG19_F24 3 49 34 45 -45 right 1 5.000000e-01 /Users/lab/Documents/magic_control_exp/stim/5_noeffect.mov 644 27-Sep-2017 09:30:37 2.938069e+02 -3.887567e+02 0 0
14AG19_F24 3 50 66 45 -45 right 1 5.000000e-01 /Users/lab/Documents/magic_control_exp/stim/9_noeffect.mov 561 27-Sep-2017 09:30:40 -4.128392e+02 2.569422e+02 0 0
14AG19_F24 3 51 78 45 -45 right 1 5.000000e-01 /Users/lab/Documents/magic_control_exp/stim/9_noeffect.mov 545 27-Sep-2017 09:30:43 -3.102663e+02 3.858570e+02 0 0
14AG19_F24 3 52 23 -45 45 left 1 5.000000e-01 /Users/lab/Documents/magic_control_exp/stim/3_noeffect.mov 648 27-Sep-2017 09:31:02 1.486207e+00 -3.165829e+01 0 1
14AG19_F24 3 53 45 45 45 right 1 5.000000e-01 /Users/lab/Documents/magic_control_exp/stim/6_noeffect.mov 545 27-Sep-2017 09:31:05 4.090684e+02 4.506573e+02 0 0
14AG19_F24 3 54 67 -45 45 left 1 5.000000e-01 /Users/lab/Documents/magic_control_exp/stim/9_noeffect.mov 544 27-Sep-2017 09:31:07 2.721468e+01 -1.867389e+02 0 0
14AG19_F24 3 55 49 45 45 right 1 5.000000e-01 /Users/lab/Documents/magic_control_exp/stim/7_noeffect.mov 495 27-Sep-2017 09:31:10 4.798847e+02 -1.751551e+02 0 0
14AG19_F24 3 56 25 45 45 right 1 5.000000e-01 /Users/lab/Documents/magic_control_exp/stim/4_noeffect.mov 615 27-Sep-2017 09:31:28 -1.876665e+02 -3.708350e-01 0 1
14AG19_F24 3 57 12 -45 -45 left 1 5.000000e-01 /Users/lab/Documents/magic_control_exp/stim/2_noeffect.mov 528 27-Sep-2017 09:31:31 -4.978853e+02 -2.989976e+02 0 0
14AG19_F24 3 58 18 45 -45 right 1 5.000000e-01 /Users/lab/Documents/magic_control_exp/stim/2_noeffect.mov 510 27-Sep-2017 09:31:34 -2.358394e+02 -8.645813e+01 0 0
14AG19_F24 3 59 7 -45 45 left 1 5.000000e-01 /Users/lab/Documents/magic_control_exp/stim/1_noeffect.mov 644 27-Sep-2017 09:31:37 4.583080e+02 -2.199253e+02 0 0
14AG19_F24 3 60 61 45 45 right 1 5.000000e-01 /Users/lab/Documents/magic_control_exp/stim/8_noeffect.mov 699 27-Sep-2017 09:31:59 1.263681e+02 -3.395041e+02 0 1
14AG19_F24 3 61 59 -45 45 left 1 5.000000e-01 /Users/lab/Documents/magic_control_exp/stim/8_noeffect.mov 494 27-Sep-2017 09:32:02 -3.367751e+02 -1.603630e+02 0 0
14AG19_F24 3 62 54 45 -45 right 1 5.000000e-01 /Users/lab/Documents/magic_control_exp/stim/7_noeffect.mov 610 27-Sep-2017 09:32:05 -2.464496e+02 1.501996e+02 0 0
14AG19_F24 3 63 62 45 -45 right 1 5.000000e-01 /Users/lab/Documents/magic_control_exp/stim/8_noeffect.mov 594 27-Sep-2017 09:32:08 8.896195e+01 -3.947564e+02 0 0
14AG19_F24 3 64 1 45 45 right 1 5.000000e-01 /Users/lab/Documents/magic_control_exp/stim/1_noeffect.mov 583 27-Sep-2017 09:32:34 4.027641e+02 -3.612729e+02 0 1
14AG19_F24 3 65 64 -45 -45 left 1 5.000000e-01 /Users/lab/Documents/magic_control_exp/stim/8_noeffect.mov 511 27-Sep-2017 09:32:37 1.057094e+02 4.459298e+02 0 0
14AG19_F24 3 66 80 -45 -45 left 1 5.000000e-01 /Users/lab/Documents/magic_control_exp/stim/9_noeffect.mov 458 27-Sep-2017 09:32:40 -1.419088e+01 2.746041e+02 0 0
14AG19_F24 3 67 5 45 45 right 1 5.000000e-01 /Users/lab/Documents/magic_control_exp/stim/1_noeffect.mov 473 27-Sep-2017 09:32:43 3.277148e+02 -1.128293e+02 0 0
14AG19_F24 3 68 38 45 -45 right 1 5.000000e-01 /Users/lab/Documents/magic_control_exp/stim/5_noeffect.mov 631 27-Sep-2017 09:33:00 4.974727e+02 -4.240469e+02 0 1
14AG19_F24 3 69 10 45 -45 right 1 5.000000e-01 /Users/lab/Documents/magic_control_exp/stim/2_noeffect.mov 545 27-Sep-2017 09:33:03 2.063620e+01 4.027500e+02 0 0
14AG19_F24 3 70 68 -45 -45 left 1 5.000000e-01 /Users/lab/Documents/magic_control_exp/stim/9_noeffect.mov 468 27-Sep-2017 09:33:06 -1.761040e+02 -3.228830e+02 0 0
14AG19_F24 3 71 36 -45 -45 left 1 5.000000e-01 /Users/lab/Documents/magic_control_exp/stim/5_noeffect.mov 476 27-Sep-2017 09:33:08 4.180135e+02 -1.027303e+02 0 0
14AG19_F24 3 72 79 -45 45 left 1 5.000000e-01 /Users/lab/Documents/magic_control_exp/stim/9_noeffect.mov 682 27-Sep-2017 09:33:31 -4.501211e+02 6.160820e+01 0 1
14AG19_F24 3 73 14 45 -45 right 1 5.000000e-01 /Users/lab/Documents/magic_control_exp/stim/2_noeffect.mov 610 27-Sep-2017 09:33:34 -3.079728e+02 3.016631e+01 0 0
14AG19_F24 3 74 53 45 45 right 1 5.000000e-01 /Users/lab/Documents/magic_control_exp/stim/7_noeffect.mov 494 27-Sep-2017 09:33:37 2.693454e+02 1.802182e+02 0 0
14AG19_F24 3 75 11 -45 45 left 1 5.000000e-01 /Users/lab/Documents/magic_control_exp/stim/2_noeffect.mov 544 27-Sep-2017 09:33:40 -6.293855e+01 -1.534243e+02 0 0
14AG19_F24 3 76 74 45 -45 right 1 5.000000e-01 /Users/lab/Documents/magic_control_exp/stim/9_noeffect.mov 664 27-Sep-2017 09:34:03 3.716844e+02 -2.911914e+02 0 1
14AG19_F24 3 77 9 45 45 right 1 5.000000e-01 /Users/lab/Documents/magic_control_exp/stim/2_noeffect.mov 544 27-Sep-2017 09:34:06 5.332374e+01 3.416372e+02 0 0
14AG19_F24 3 78 3 -45 45 left 1 5.000000e-01 /Users/lab/Documents/magic_control_exp/stim/1_noeffect.mov 488 27-Sep-2017 09:34:09 4.904826e+02 2.514564e+02 0 0
14AG19_F24 3 79 32 -45 -45 left 1 5.000000e-01 /Users/lab/Documents/magic_control_exp/stim/4_noeffect.mov 544 27-Sep-2017 09:34:11 -7.220056e+01 -3.529186e+02 0 0
14AG19_F24 3 80 56 -45 -45 left 1 5.000000e-01 /Users/lab/Documents/magic_control_exp/stim/7_noeffect.mov 486 27-Sep-2017 09:34:14 -2.558075e+02 -1.506507e+02 0 0
