subject_name subjectNumber iTrial unshuffled_trial targetOrientation flankersOrientation response correct onscreen_stim_duration magicShows rt date time_of_day deltaX deltaY surpriseClip isClipTrial
72gg03_f25 22 1 22 45 -45 right 1 5.000000e-01 /Users/lab/Documents/surprise_project/surprise/stim/3_noeffect.mov 650 06-Mar-2018 13:47:31 6.736484e+01 -4.533324e+02 0 1
72gg03_f25 22 2 64 -45 -45 left 1 5.000000e-01 /Users/lab/Documents/surprise_project/surprise/stim/8_noeffect.mov 500 06-Mar-2018 13:47:33 3.031806e+02 -2.866979e+02 0 0
72gg03_f25 22 3 70 45 -45 right 1 5.000000e-01 /Users/lab/Documents/surprise_project/surprise/stim/9_noeffect.mov 564 06-Mar-2018 13:47:36 3.773639e+02 -4.872351e+02 0 0
72gg03_f25 22 4 36 -45 -45 left 1 5.000000e-01 /Users/lab/Documents/surprise_project/surprise/stim/5_effect.mov 497 06-Mar-2018 13:47:53 2.029858e+02 1.470249e+02 1 1
72gg03_f25 22 5 26 45 -45 right 1 5.000000e-01 /Users/lab/Documents/surprise_project/surprise/stim/4_effect.mov 568 06-Mar-2018 13:47:56 5.648302e+01 4.364457e+02 1 0
72gg03_f25 22 6 50 45 -45 right 1 5.000000e-01 /Users/lab/Documents/surprise_project/surprise/stim/7_effect.mov 550 06-Mar-2018 13:47:59 -9.817838e+01 -4.437470e+02 1 0
72gg03_f25 22 7 17 45 45 right 1 5.000000e-01 /Users/lab/Documents/surprise_project/surprise/stim/3_effect.mov 701 06-Mar-2018 13:48:02 4.019894e+02 3.117591e+02 1 0
72gg03_f25 22 8 55 -45 45 left 1 5.000000e-01 /Users/lab/Documents/surprise_project/surprise/stim/7_noeffect.mov 580 06-Mar-2018 13:48:21 4.449205e+02 6.554588e+01 0 1
72gg03_f25 22 9 44 -45 -45 left 1 5.000000e-01 /Users/lab/Documents/surprise_project/surprise/stim/6_effect.mov 493 06-Mar-2018 13:48:24 -3.011983e+02 -4.638111e+02 1 0
72gg03_f25 22 10 30 45 -45 right 1 5.000000e-01 /Users/lab/Documents/surprise_project/surprise/stim/4_noeffect.mov 534 06-Mar-2018 13:48:27 4.666540e+02 4.823285e+02 0 0
72gg03_f25 22 11 71 -45 45 left 1 5.000000e-01 /Users/lab/Documents/surprise_project/surprise/stim/9_noeffect.mov 550 06-Mar-2018 13:48:29 4.041182e+02 -4.440958e+02 0 0
72gg03_f25 22 12 68 -45 -45 left 1 5.000000e-01 /Users/lab/Documents/surprise_project/surprise/stim/9_effect.mov 565 06-Mar-2018 13:48:51 -3.989398e+02 -4.169905e+02 1 1
72gg03_f25 22 13 48 -45 -45 left 1 5.000000e-01 /Users/lab/Documents/surprise_project/surprise/stim/6_noeffect.mov 440 06-Mar-2018 13:48:54 8.158556e+01 3.740473e+02 0 0
72gg03_f25 22 14 20 -45 -45 left 1 5.000000e-01 /Users/lab/Documents/surprise_project/surprise/stim/3_effect.mov 445 06-Mar-2018 13:48:57 1.500672e+02 -4.081633e+02 1 0
72gg03_f25 22 15 11 -45 45 left 1 5.000000e-01 /Users/lab/Documents/surprise_project/surprise/stim/2_effect.mov 487 06-Mar-2018 13:49:00 -2.831241e+02 -1.118514e+02 1 0
72gg03_f25 22 16 40 -45 -45 left 1 5.000000e-01 /Users/lab/Documents/surprise_project/surprise/stim/5_noeffect.mov 595 06-Mar-2018 13:49:16 1.001132e+02 -3.326213e+02 0 1
72gg03_f25 22 17 1 45 45 right 1 5.000000e-01 /Users/lab/Documents/surprise_project/surprise/stim/1_effect.mov 601 06-Mar-2018 13:49:19 3.331517e+02 -4.461539e+02 1 0
72gg03_f25 22 18 32 -45 -45 left 1 5.000000e-01 /Users/lab/Documents/surprise_project/surprise/stim/4_noeffect.mov 444 06-Mar-2018 13:49:22 -3.401257e+01 -1.471163e+02 0 0
72gg03_f25 22 19 15 -45 45 left 1 5.000000e-01 /Users/lab/Documents/surprise_project/surprise/stim/2_noeffect.mov 585 06-Mar-2018 13:49:25 1.758657e+02 -2.482701e+02 0 0
72gg03_f25 22 20 3 -45 45 left 1 5.000000e-01 /Users/lab/Documents/surprise_project/surprise/stim/1_effect.mov 549 06-Mar-2018 13:49:50 3.065215e+02 -2.298031e+02 1 1
72gg03_f25 22 21 33 45 45 right 1 5.000000e-01 /Users/lab/Documents/surprise_project/surprise/stim/5_effect.mov 436 06-Mar-2018 13:49:52 -9.877639e+01 -2.257403e+02 1 0
72gg03_f25 22 22 47 -45 45 left 1 5.000000e-01 /Users/lab/Documents/surprise_project/surprise/stim/6_noeffect.mov 601 06-Mar-2018 13:49:55 -4.364023e+02 3.255010e+01 0 0
72gg03_f25 22 23 62 45 -45 right 1 5.000000e-01 /Users/lab/Documents/surprise_project/surprise/stim/8_noeffect.mov 533 06-Mar-2018 13:49:58 3.220746e+02 -4.076159e+02 0 0
72gg03_f25 22 24 34 45 -45 right 1 5.000000e-01 /Users/lab/Documents/surprise_project/surprise/stim/5_effect.mov 632 06-Mar-2018 13:50:15 9.360626e+00 1.623875e+02 1 1
72gg03_f25 22 25 29 45 45 right 1 5.000000e-01 /Users/lab/Documents/surprise_project/surprise/stim/4_noeffect.mov 436 06-Mar-2018 13:50:18 3.175791e+02 -3.375056e+02 0 0
72gg03_f25 22 26 9 45 45 right 1 5.000000e-01 /Users/lab/Documents/surprise_project/surprise/stim/2_effect.mov 518 06-Mar-2018 13:50:21 3.155635e+02 3.208551e+02 1 0
72gg03_f25 22 27 25 45 45 right 1 5.000000e-01 /Users/lab/Documents/surprise_project/surprise/stim/4_effect.mov 409 06-Mar-2018 13:50:23 2.614582e+02 2.898442e+02 1 0
72gg03_f25 22 28 8 -45 -45 left 1 5.000000e-01 /Users/lab/Documents/surprise_project/surprise/stim/1_noeffect.mov 1031 06-Mar-2018 13:50:59 3.197938e+02 9.543286e+01 1 1
72gg03_f25 22 29 18 45 -45 right 1 5.000000e-01 /Users/lab/Documents/surprise_project/surprise/stim/3_effect.mov 460 06-Mar-2018 13:51:01 -1.767256e+02 -3.608963e+02 1 0
72gg03_f25 22 30 12 -45 -45 left 1 5.000000e-01 /Users/lab/Documents/surprise_project/surprise/stim/2_effect.mov 386 06-Mar-2018 13:51:04 -2.430119e+02 -3.982872e+02 1 0
72gg03_f25 22 31 54 45 -45 right 1 5.000000e-01 /Users/lab/Documents/surprise_project/surprise/stim/7_noeffect.mov 534 06-Mar-2018 13:51:07 3.002332e+02 4.089020e+02 0 0
72gg03_f25 22 32 59 -45 45 right 0 5.000000e-01 /Users/lab/Documents/surprise_project/surprise/stim/8_effect.mov 530 06-Mar-2018 13:51:28 -1.002251e+02 -4.312346e+02 1 1
72gg03_f25 22 33 24 -45 -45 left 1 5.000000e-01 /Users/lab/Documents/surprise_project/surprise/stim/3_noeffect.mov 435 06-Mar-2018 13:51:31 -1.497014e+02 4.600830e+02 0 0
72gg03_f25 22 34 61 45 45 right 1 5.000000e-01 /Users/lab/Documents/surprise_project/surprise/stim/8_noeffect.mov 403 06-Mar-2018 13:51:33 4.738787e+02 -2.237698e+02 0 0
72gg03_f25 22 35 39 -45 45 left 1 5.000000e-01 /Users/lab/Documents/surprise_project/surprise/stim/5_noeffect.mov 494 06-Mar-2018 13:51:36 4.156916e+02 -2.933944e+02 0 0
72gg03_f25 22 36 10 45 -45 right 1 5.000000e-01 /Users/lab/Documents/surprise_project/surprise/stim/2_effect.mov 547 06-Mar-2018 13:52:01 -2.128584e+02 -2.469430e+02 1 1
72gg03_f25 22 37 60 -45 -45 left 1 5.000000e-01 /Users/lab/Documents/surprise_project/surprise/stim/8_effect.mov 449 06-Mar-2018 13:52:04 4.561015e+02 -3.536488e+02 1 0
72gg03_f25 22 38 5 45 45 right 1 5.000000e-01 /Users/lab/Documents/surprise_project/surprise/stim/1_noeffect.mov 434 06-Mar-2018 13:52:07 4.078368e+02 -2.477017e+02 1 0
72gg03_f25 22 39 41 45 45 right 1 5.000000e-01 /Users/lab/Documents/surprise_project/surprise/stim/6_effect.mov 441 06-Mar-2018 13:52:10 -3.547837e+02 1.359082e+02 1 0
72gg03_f25 22 40 28 -45 -45 left 1 5.000000e-01 /Users/lab/Documents/surprise_project/surprise/stim/4_effect.mov 485 06-Mar-2018 13:52:27 5.183990e+01 4.745743e+01 1 1
72gg03_f25 22 41 23 -45 45 left 1 5.000000e-01 /Users/lab/Documents/surprise_project/surprise/stim/3_noeffect.mov 490 06-Mar-2018 13:52:29 -1.762303e+02 -3.008885e+02 0 0
72gg03_f25 22 42 4 -45 -45 left 1 5.000000e-01 /Users/lab/Documents/surprise_project/surprise/stim/1_effect.mov 462 06-Mar-2018 13:52:32 3.191425e+02 -3.728304e+02 1 0
72gg03_f25 22 43 58 45 -45 right 1 5.000000e-01 /Users/lab/Documents/surprise_project/surprise/stim/8_effect.mov 617 06-Mar-2018 13:52:35 -1.751154e+02 2.943587e+02 1 0
72gg03_f25 22 44 7 -45 45 left 1 5.000000e-01 /Users/lab/Documents/surprise_project/surprise/stim/1_noeffect.mov 548 06-Mar-2018 13:53:00 3.396768e+02 1.862494e+02 1 1
72gg03_f25 22 45 13 45 45 right 1 5.000000e-01 /Users/lab/Documents/surprise_project/surprise/stim/2_noeffect.mov 464 06-Mar-2018 13:53:03 -1.389034e+02 3.563133e+01 0 0
72gg03_f25 22 46 67 -45 45 left 1 5.000000e-01 /Users/lab/Documents/surprise_project/surprise/stim/9_effect.mov 454 06-Mar-2018 13:53:06 2.411636e+00 -2.360450e+02 1 0
72gg03_f25 22 47 52 -45 -45 left 1 5.000000e-01 /Users/lab/Documents/surprise_project/surprise/stim/7_effect.mov 389 06-Mar-2018 13:53:08 4.664656e+02 4.880314e+02 1 0
72gg03_f25 22 48 2 45 -45 right 1 5.000000e-01 /Users/lab/Documents/surprise_project/surprise/stim/1_effect.mov 580 06-Mar-2018 13:53:33 -2.844239e+02 -2.375816e+02 1 1
72gg03_f25 22 49 65 45 45 right 1 5.000000e-01 /Users/lab/Documents/surprise_project/surprise/stim/9_effect.mov 490 06-Mar-2018 13:53:36 -3.509808e+02 -9.973321e+00 1 0
72gg03_f25 22 50 36 -45 45 left 1 5.000000e-01 /Users/lab/Documents/surprise_project/surprise/stim/5_effect.mov 495 06-Mar-2018 13:53:39 -4.673029e+02 -1.669344e+02 1 0
72gg03_f25 22 51 53 45 45 right 1 5.000000e-01 /Users/lab/Documents/surprise_project/surprise/stim/7_noeffect.mov 468 06-Mar-2018 13:53:42 -2.802435e+02 1.000376e+02 0 0
72gg03_f25 22 52 72 -45 -45 left 1 5.000000e-01 /Users/lab/Documents/surprise_project/surprise/stim/9_noeffect.mov 494 06-Mar-2018 13:54:03 -2.841049e+02 -3.041095e+02 0 1
72gg03_f25 22 53 42 45 -45 right 1 5.000000e-01 /Users/lab/Documents/surprise_project/surprise/stim/6_effect.mov 518 06-Mar-2018 13:54:06 2.050117e+02 2.911908e+02 1 0
72gg03_f25 22 54 46 45 -45 right 1 5.000000e-01 /Users/lab/Documents/surprise_project/surprise/stim/6_noeffect.mov 499 06-Mar-2018 13:54:09 -2.027312e+02 -3.958940e+02 0 0
72gg03_f25 22 55 66 45 -45 right 1 5.000000e-01 /Users/lab/Documents/surprise_project/surprise/stim/9_effect.mov 455 06-Mar-2018 13:54:12 -4.902316e+02 4.014128e+01 1 0
72gg03_f25 22 56 43 -45 45 left 1 5.000000e-01 /Users/lab/Documents/surprise_project/surprise/stim/6_effect.mov 626 06-Mar-2018 13:54:27 4.689869e+02 -4.790446e+02 1 1
72gg03_f25 22 57 19 -45 45 left 1 5.000000e-01 /Users/lab/Documents/surprise_project/surprise/stim/3_effect.mov 403 06-Mar-2018 13:54:30 -1.035278e+01 -1.223996e+02 1 0
72gg03_f25 22 58 49 45 45 right 1 5.000000e-01 /Users/lab/Documents/surprise_project/surprise/stim/7_effect.mov 378 06-Mar-2018 13:54:33 -2.181565e+02 6.874939e+01 1 0
72gg03_f25 22 59 38 45 -45 right 1 5.000000e-01 /Users/lab/Documents/surprise_project/surprise/stim/5_noeffect.mov 602 06-Mar-2018 13:54:36 -4.175124e+02 -2.329501e+02 0 0
72gg03_f25 22 60 57 45 45 right 1 5.000000e-01 /Users/lab/Documents/surprise_project/surprise/stim/8_effect.mov 579 06-Mar-2018 13:54:56 -4.082179e+02 -2.975096e+01 1 1
72gg03_f25 22 61 56 -45 -45 left 1 5.000000e-01 /Users/lab/Documents/surprise_project/surprise/stim/7_noeffect.mov 381 06-Mar-2018 13:54:59 -4.230590e+01 1.655042e+01 0 0
72gg03_f25 22 62 37 45 45 right 1 5.000000e-01 /Users/lab/Documents/surprise_project/surprise/stim/5_noeffect.mov 374 06-Mar-2018 13:55:02 1.954404e+02 1.981175e+02 0 0
72gg03_f25 22 63 16 -45 -45 left 1 5.000000e-01 /Users/lab/Documents/surprise_project/surprise/stim/2_noeffect.mov 384 06-Mar-2018 13:55:05 -4.592391e+02 -2.240409e+02 0 0
72gg03_f25 22 64 6 45 -45 right 1 5.000000e-01 /Users/lab/Documents/surprise_project/surprise/stim/1_noeffect.mov 596 06-Mar-2018 13:55:29 -4.599353e+02 3.607486e+02 1 1
72gg03_f25 22 65 31 -45 45 left 1 5.000000e-01 /Users/lab/Documents/surprise_project/surprise/stim/4_noeffect.mov 532 06-Mar-2018 13:55:32 -3.871365e+02 -3.807168e+02 0 0
72gg03_f25 22 66 27 -45 45 left 1 5.000000e-01 /Users/lab/Documents/surprise_project/surprise/stim/4_effect.mov 517 06-Mar-2018 13:55:35 3.859341e+02 3.079151e+02 1 0
72gg03_f25 22 67 21 45 45 right 1 5.000000e-01 /Users/lab/Documents/surprise_project/surprise/stim/3_noeffect.mov 411 06-Mar-2018 13:55:38 3.887285e+02 -3.377841e+02 0 0
72gg03_f25 22 68 45 45 45 right 1 5.000000e-01 /Users/lab/Documents/surprise_project/surprise/stim/6_noeffect.mov 486 06-Mar-2018 13:55:52 -1.040789e+02 3.378550e+02 0 1
72gg03_f25 22 69 51 -45 45 left 1 5.000000e-01 /Users/lab/Documents/surprise_project/surprise/stim/7_effect.mov 718 06-Mar-2018 13:55:55 -7.814120e+01 4.213947e+02 1 0
72gg03_f25 22 70 63 -45 45 left 1 5.000000e-01 /Users/lab/Documents/surprise_project/surprise/stim/8_noeffect.mov 534 06-Mar-2018 13:55:58 -4.698305e+02 -3.480693e+02 0 0
72gg03_f25 22 71 69 45 45 right 1 5.000000e-01 /Users/lab/Documents/surprise_project/surprise/stim/9_noeffect.mov 345 06-Mar-2018 13:56:01 2.735157e+02 1.686604e+02 0 0
72gg03_f25 22 72 14 45 -45 right 1 5.000000e-01 /Users/lab/Documents/surprise_project/surprise/stim/2_noeffect.mov 568 06-Mar-2018 13:56:04 -4.289671e+02 3.337389e+02 0 0
