subject_name subjectNumber block iTrial unshuffled_trial targetOrientation flankersOrientation response correct onscreen_stim_duration magicShows rt date time_of_day deltaX deltaY surpriseClip isClipTrial isSurprise
ch_pu_1997_05_19_243_f 825 3 1 0 6 45 -45 right 1 3 /Users/lab/Documents/experiments/2019/surprise/stim/1_noeffect.mov 890 18-Apr-2019 10:00:41 -4.134123e+02 -1.464150e+02 0 1
ch_pu_1997_05_19_243_f 825 3 2 0 61 45 45 right 1 3 /Users/lab/Documents/experiments/2019/surprise/stim/8_noeffect.mov 590 18-Apr-2019 10:00:44 1.642813e+02 3.321195e+02 0 0
ch_pu_1997_05_19_243_f 825 3 3 0 35 -45 45 left 1 3 /Users/lab/Documents/experiments/2019/surprise/stim/5_noeffect.mov 661 18-Apr-2019 10:00:47 8.482872e+01 -1.912149e+02 0 0
ch_pu_1997_05_19_243_f 825 3 4 0 36 -45 -45 left 1 3 /Users/lab/Documents/experiments/2019/surprise/stim/5_noeffect.mov 720 18-Apr-2019 10:01:03 2.794530e+02 4.245729e+01 0 1
ch_pu_1997_05_19_243_f 825 3 5 0 71 -45 45 left 1 3 /Users/lab/Documents/experiments/2019/surprise/stim/9_noeffect.mov 743 18-Apr-2019 10:01:06 2.264458e+02 3.445052e+02 0 0
ch_pu_1997_05_19_243_f 825 3 6 0 63 -45 45 left 1 3 /Users/lab/Documents/experiments/2019/surprise/stim/8_noeffect.mov 738 18-Apr-2019 10:01:10 4.179551e+02 -1.379989e+01 0 0
ch_pu_1997_05_19_243_f 825 3 7 0 56 -45 -45 left 1 3 /Users/lab/Documents/experiments/2019/surprise/stim/7_noeffect.mov 657 18-Apr-2019 10:01:13 -4.449580e+02 1.213456e+02 0 0
ch_pu_1997_05_19_243_f 825 3 8 0 66 45 -45 right 1 3 /Users/lab/Documents/experiments/2019/surprise/stim/9_noeffect.mov 840 18-Apr-2019 10:01:35 4.715364e+02 -5.480243e+00 0 1
ch_pu_1997_05_19_243_f 825 3 9 0 11 -45 45 left 1 3 /Users/lab/Documents/experiments/2019/surprise/stim/2_noeffect.mov 841 18-Apr-2019 10:01:38 -1.716473e+02 -2.452110e+02 0 0
ch_pu_1997_05_19_243_f 825 3 10 0 51 -45 45 left 1 3 /Users/lab/Documents/experiments/2019/surprise/stim/7_noeffect.mov 690 18-Apr-2019 10:01:41 -3.084126e+02 3.394993e+02 0 0
ch_pu_1997_05_19_243_f 825 3 11 0 32 -45 -45 left 1 3 /Users/lab/Documents/experiments/2019/surprise/stim/4_noeffect.mov 748 18-Apr-2019 10:01:44 3.524935e+02 -2.225819e+02 0 0
ch_pu_1997_05_19_243_f 825 3 12 0 79 -45 45 left 1 3 /Users/lab/Documents/experiments/2019/surprise/stim/9_noeffect.mov 816 18-Apr-2019 10:02:06 -4.826437e+02 -3.850580e+02 0 1
ch_pu_1997_05_19_243_f 825 3 13 0 5 45 45 right 1 3 /Users/lab/Documents/experiments/2019/surprise/stim/1_noeffect.mov 681 18-Apr-2019 10:02:09 -4.352241e+02 1.227391e+02 0 0
ch_pu_1997_05_19_243_f 825 3 14 0 10 45 -45 right 1 3 /Users/lab/Documents/experiments/2019/surprise/stim/2_noeffect.mov 625 18-Apr-2019 10:02:12 -2.102373e+02 -6.454486e+01 0 0
ch_pu_1997_05_19_243_f 825 3 15 0 46 45 -45 right 1 3 /Users/lab/Documents/experiments/2019/surprise/stim/6_noeffect.mov 710 18-Apr-2019 10:02:15 1.470152e+02 -2.167993e+02 0 0
ch_pu_1997_05_19_243_f 825 3 16 0 53 45 45 right 1 3 /Users/lab/Documents/experiments/2019/surprise/stim/7_noeffect.mov 696 18-Apr-2019 10:02:34 -4.123794e+01 -3.319866e+02 0 1
ch_pu_1997_05_19_243_f 825 3 17 0 24 -45 -45 left 1 3 /Users/lab/Documents/experiments/2019/surprise/stim/3_noeffect.mov 581 18-Apr-2019 10:02:37 -9.230996e+01 -2.177651e+01 0 0
ch_pu_1997_05_19_243_f 825 3 18 0 30 45 -45 right 1 3 /Users/lab/Documents/experiments/2019/surprise/stim/4_noeffect.mov 666 18-Apr-2019 10:02:40 -2.105686e+02 -8.268681e+01 0 0
ch_pu_1997_05_19_243_f 825 3 19 0 80 -45 -45 left 1 3 /Users/lab/Documents/experiments/2019/surprise/stim/9_noeffect.mov 590 18-Apr-2019 10:02:43 -3.210308e+02 4.694942e+01 0 0
ch_pu_1997_05_19_243_f 825 3 20 0 28 -45 -45 left 1 3 /Users/lab/Documents/experiments/2019/surprise/stim/4_noeffect.mov 930 18-Apr-2019 10:03:01 4.495927e+02 -1.433037e+02 0 1
ch_pu_1997_05_19_243_f 825 3 21 0 9 45 45 right 1 3 /Users/lab/Documents/experiments/2019/surprise/stim/2_noeffect.mov 647 18-Apr-2019 10:03:04 -4.452493e+02 6.781023e+01 0 0
ch_pu_1997_05_19_243_f 825 3 22 0 40 -45 -45 left 1 3 /Users/lab/Documents/experiments/2019/surprise/stim/5_noeffect.mov 934 18-Apr-2019 10:03:07 2.183289e+02 4.153434e+02 0 0
ch_pu_1997_05_19_243_f 825 3 23 0 26 45 -45 right 1 3 /Users/lab/Documents/experiments/2019/surprise/stim/4_noeffect.mov 796 18-Apr-2019 10:03:10 1.031575e+02 -3.706043e+02 0 0
ch_pu_1997_05_19_243_f 825 3 24 0 20 -45 -45 left 1 3 /Users/lab/Documents/experiments/2019/surprise/stim/2_noeffect.mov 820 18-Apr-2019 10:03:35 2.211821e+02 6.174337e+01 0 1
ch_pu_1997_05_19_243_f 825 3 25 0 38 45 -45 right 1 3 /Users/lab/Documents/experiments/2019/surprise/stim/5_noeffect.mov 641 18-Apr-2019 10:03:38 3.014746e+02 2.914586e+02 0 0
ch_pu_1997_05_19_243_f 825 3 26 0 3 -45 45 left 1 3 /Users/lab/Documents/experiments/2019/surprise/stim/1_noeffect.mov 740 18-Apr-2019 10:03:41 1.400254e+02 -3.328338e+02 0 0
ch_pu_1997_05_19_243_f 825 3 27 0 52 -45 -45 left 1 3 /Users/lab/Documents/experiments/2019/surprise/stim/7_noeffect.mov 557 18-Apr-2019 10:03:44 -9.868303e+01 1.338018e+02 0 0
ch_pu_1997_05_19_243_f 825 3 28 0 54 45 -45 right 1 3 /Users/lab/Documents/experiments/2019/surprise/stim/7_noeffect.mov 939 18-Apr-2019 10:04:04 -3.971787e+01 2.969738e+02 0 1
ch_pu_1997_05_19_243_f 825 3 29 0 48 -45 -45 left 1 3 /Users/lab/Documents/experiments/2019/surprise/stim/6_noeffect.mov 984 18-Apr-2019 10:04:07 -1.569375e+02 4.945258e+02 0 0
ch_pu_1997_05_19_243_f 825 3 30 0 77 45 45 right 1 3 /Users/lab/Documents/experiments/2019/surprise/stim/9_noeffect.mov 552 18-Apr-2019 10:04:10 -1.831378e+02 -1.060175e+02 0 0
ch_pu_1997_05_19_243_f 825 3 31 0 29 45 45 right 1 3 /Users/lab/Documents/experiments/2019/surprise/stim/4_noeffect.mov 601 18-Apr-2019 10:04:13 9.568923e+01 2.069165e+02 0 0
ch_pu_1997_05_19_243_f 825 3 32 0 70 45 -45 right 1 3 /Users/lab/Documents/experiments/2019/surprise/stim/9_noeffect.mov 715 18-Apr-2019 10:04:35 1.731223e+02 -4.047343e+02 0 1
ch_pu_1997_05_19_243_f 825 3 33 0 59 -45 45 left 1 3 /Users/lab/Documents/experiments/2019/surprise/stim/8_noeffect.mov 825 18-Apr-2019 10:04:38 -8.250878e+01 2.293662e+02 0 0
ch_pu_1997_05_19_243_f 825 3 34 0 68 -45 -45 left 1 3 /Users/lab/Documents/experiments/2019/surprise/stim/9_noeffect.mov 732 18-Apr-2019 10:04:41 -2.687791e+02 9.432550e+00 0 0
ch_pu_1997_05_19_243_f 825 3 35 0 58 45 -45 right 1 3 /Users/lab/Documents/experiments/2019/surprise/stim/8_noeffect.mov 558 18-Apr-2019 10:04:44 -1.137792e+01 -3.775344e+02 0 0
ch_pu_1997_05_19_243_f 825 3 36 0 39 -45 45 left 1 3 /Users/lab/Documents/experiments/2019/surprise/stim/5_noeffect.mov 813 18-Apr-2019 10:05:01 2.135226e+02 -2.372703e+02 0 1
ch_pu_1997_05_19_243_f 825 3 37 0 2 45 -45 right 1 3 /Users/lab/Documents/experiments/2019/surprise/stim/1_noeffect.mov 569 18-Apr-2019 10:05:04 -1.763477e+02 2.322925e+02 0 0
ch_pu_1997_05_19_243_f 825 3 38 0 69 45 45 right 1 3 /Users/lab/Documents/experiments/2019/surprise/stim/9_noeffect.mov 749 18-Apr-2019 10:05:07 4.783126e+02 -3.672894e+02 0 0
ch_pu_1997_05_19_243_f 825 3 39 0 44 -45 -45 left 1 3 /Users/lab/Documents/experiments/2019/surprise/stim/6_noeffect.mov 930 18-Apr-2019 10:05:10 5.000628e+01 3.087198e+01 0 0
ch_pu_1997_05_19_243_f 825 3 40 0 42 45 -45 right 1 3 /Users/lab/Documents/experiments/2019/surprise/stim/6_noeffect.mov 697 18-Apr-2019 10:05:25 2.984505e+02 -1.479820e+02 0 1
ch_pu_1997_05_19_243_f 825 3 41 0 74 45 -45 right 1 3 /Users/lab/Documents/experiments/2019/surprise/stim/9_noeffect.mov 668 18-Apr-2019 10:05:28 4.876265e+02 4.428189e+02 0 0
ch_pu_1997_05_19_243_f 825 3 42 0 45 45 45 right 1 3 /Users/lab/Documents/experiments/2019/surprise/stim/6_noeffect.mov 514 18-Apr-2019 10:05:31 8.087399e+01 -4.405185e+02 0 0
ch_pu_1997_05_19_243_f 825 3 43 0 64 -45 -45 left 1 3 /Users/lab/Documents/experiments/2019/surprise/stim/8_noeffect.mov 882 18-Apr-2019 10:05:35 1.288865e+00 -2.471060e+02 0 0
ch_pu_1997_05_19_243_f 825 3 44 0 73 45 45 right 1 3 /Users/lab/Documents/experiments/2019/surprise/stim/9_noeffect.mov 763 18-Apr-2019 10:05:56 1.792172e+01 4.853950e+02 0 1
ch_pu_1997_05_19_243_f 825 3 45 0 47 -45 45 left 1 3 /Users/lab/Documents/experiments/2019/surprise/stim/6_noeffect.mov 838 18-Apr-2019 10:06:00 -4.702928e+02 -6.004192e+01 0 0
ch_pu_1997_05_19_243_f 825 3 46 0 12 -45 -45 left 1 3 /Users/lab/Documents/experiments/2019/surprise/stim/2_noeffect.mov 740 18-Apr-2019 10:06:03 1.823847e+02 4.957243e+02 0 0
ch_pu_1997_05_19_243_f 825 3 47 0 57 45 45 right 1 3 /Users/lab/Documents/experiments/2019/surprise/stim/8_noeffect.mov 470 18-Apr-2019 10:06:06 -2.779030e+02 4.150460e+02 0 0
ch_pu_1997_05_19_243_f 825 3 48 0 8 -45 -45 left 1 3 /Users/lab/Documents/experiments/2019/surprise/stim/1_noeffect.mov 615 18-Apr-2019 10:06:31 1.777876e+02 1.126373e+02 0 1
ch_pu_1997_05_19_243_f 825 3 49 0 43 -45 45 left 1 3 /Users/lab/Documents/experiments/2019/surprise/stim/6_noeffect.mov 885 18-Apr-2019 10:06:34 -1.907628e+02 3.404269e+01 0 0
ch_pu_1997_05_19_243_f 825 3 50 0 13 45 45 right 1 3 /Users/lab/Documents/experiments/2019/surprise/stim/2_noeffect.mov 625 18-Apr-2019 10:06:37 -3.015310e+02 -5.257318e+01 0 0
ch_pu_1997_05_19_243_f 825 3 51 0 55 -45 45 left 1 3 /Users/lab/Documents/experiments/2019/surprise/stim/7_noeffect.mov 567 18-Apr-2019 10:06:40 -3.499524e+02 -1.534708e+01 0 0
ch_pu_1997_05_19_243_f 825 3 52 0 41 45 45 right 1 3 /Users/lab/Documents/experiments/2019/surprise/stim/6_noeffect.mov 955 18-Apr-2019 10:06:55 7.936637e+01 -1.550651e+02 0 1
ch_pu_1997_05_19_243_f 825 3 53 0 4 -45 -45 left 1 3 /Users/lab/Documents/experiments/2019/surprise/stim/1_noeffect.mov 669 18-Apr-2019 10:06:58 -1.199391e+02 4.890161e+02 0 0
ch_pu_1997_05_19_243_f 825 3 54 0 75 -45 45 left 1 3 /Users/lab/Documents/experiments/2019/surprise/stim/9_noeffect.mov 648 18-Apr-2019 10:07:01 -1.748618e+02 2.953712e+02 0 0
ch_pu_1997_05_19_243_f 825 3 55 0 15 -45 45 left 1 3 /Users/lab/Documents/experiments/2019/surprise/stim/2_noeffect.mov 709 18-Apr-2019 10:07:04 3.227267e+02 2.784332e+02 0 0
ch_pu_1997_05_19_243_f 825 3 56 0 62 45 -45 right 1 3 /Users/lab/Documents/experiments/2019/surprise/stim/8_noeffect.mov 921 18-Apr-2019 10:07:25 -2.955879e+02 7.708354e+01 0 1
ch_pu_1997_05_19_243_f 825 3 57 0 49 45 45 right 1 3 /Users/lab/Documents/experiments/2019/surprise/stim/7_noeffect.mov 666 18-Apr-2019 10:07:28 1.994034e+02 2.304321e+02 0 0
ch_pu_1997_05_19_243_f 825 3 58 0 34 45 -45 right 1 3 /Users/lab/Documents/experiments/2019/surprise/stim/5_noeffect.mov 610 18-Apr-2019 10:07:31 3.845963e+02 -1.515786e+02 0 0
ch_pu_1997_05_19_243_f 825 3 59 0 65 45 45 right 1 3 /Users/lab/Documents/experiments/2019/surprise/stim/9_noeffect.mov 661 18-Apr-2019 10:07:35 -4.701181e+02 1.474009e+02 0 0
ch_pu_1997_05_19_243_f 825 3 60 0 16 -45 -45 left 1 3 /Users/lab/Documents/experiments/2019/surprise/stim/2_noeffect.mov 840 18-Apr-2019 10:07:59 -8.272440e+01 3.517433e+02 0 1
ch_pu_1997_05_19_243_f 825 3 61 0 17 45 45 right 1 3 /Users/lab/Documents/experiments/2019/surprise/stim/2_noeffect.mov 834 18-Apr-2019 10:08:03 -3.555955e+02 -4.267881e+02 0 0
ch_pu_1997_05_19_243_f 825 3 62 0 22 45 -45 right 1 3 /Users/lab/Documents/experiments/2019/surprise/stim/3_noeffect.mov 720 18-Apr-2019 10:08:06 3.445183e+02 -1.320244e+02 0 0
ch_pu_1997_05_19_243_f 825 3 63 0 31 -45 45 left 1 3 /Users/lab/Documents/experiments/2019/surprise/stim/4_noeffect.mov 677 18-Apr-2019 10:08:09 -4.875448e+02 -8.975812e+01 0 0
ch_pu_1997_05_19_243_f 825 3 64 0 7 -45 45 left 1 3 /Users/lab/Documents/experiments/2019/surprise/stim/1_noeffect.mov 715 18-Apr-2019 10:08:34 1.094965e+02 -3.589791e+01 0 1
ch_pu_1997_05_19_243_f 825 3 65 0 21 45 45 right 1 3 /Users/lab/Documents/experiments/2019/surprise/stim/3_noeffect.mov 694 18-Apr-2019 10:08:37 4.464418e+02 -2.921188e+02 0 0
ch_pu_1997_05_19_243_f 825 3 66 0 72 -45 -45 left 1 3 /Users/lab/Documents/experiments/2019/surprise/stim/9_noeffect.mov 575 18-Apr-2019 10:08:40 9.123855e+01 -2.070398e+02 0 0
ch_pu_1997_05_19_243_f 825 3 67 0 33 45 45 right 1 3 /Users/lab/Documents/experiments/2019/surprise/stim/5_noeffect.mov 568 18-Apr-2019 10:08:43 1.152047e+02 5.612546e+01 0 0
ch_pu_1997_05_19_243_f 825 3 68 0 18 45 -45 right 1 3 /Users/lab/Documents/experiments/2019/surprise/stim/2_noeffect.mov 750 18-Apr-2019 10:09:08 4.374138e+02 1.998282e+02 0 1
ch_pu_1997_05_19_243_f 825 3 69 0 23 -45 45 left 1 3 /Users/lab/Documents/experiments/2019/surprise/stim/3_noeffect.mov 726 18-Apr-2019 10:09:11 -4.748262e+02 -1.664388e+02 0 0
ch_pu_1997_05_19_243_f 825 3 70 0 25 45 45 right 1 3 /Users/lab/Documents/experiments/2019/surprise/stim/4_noeffect.mov 920 18-Apr-2019 10:09:14 4.554741e+02 1.575481e+02 0 0
ch_pu_1997_05_19_243_f 825 3 71 0 27 -45 45 left 1 3 /Users/lab/Documents/experiments/2019/surprise/stim/4_noeffect.mov 715 18-Apr-2019 10:09:17 2.823073e+02 -2.236605e+02 0 0
ch_pu_1997_05_19_243_f 825 3 72 0 19 -45 45 left 1 3 /Users/lab/Documents/experiments/2019/surprise/stim/2_noeffect.mov 997 18-Apr-2019 10:09:42 3.200161e+02 -7.631495e+01 0 1
ch_pu_1997_05_19_243_f 825 3 73 0 67 -45 45 left 1 3 /Users/lab/Documents/experiments/2019/surprise/stim/9_noeffect.mov 653 18-Apr-2019 10:09:45 1.375289e+02 -1.551369e+02 0 0
ch_pu_1997_05_19_243_f 825 3 74 0 78 45 -45 right 1 3 /Users/lab/Documents/experiments/2019/surprise/stim/9_noeffect.mov 816 18-Apr-2019 10:09:49 -3.981527e+02 -1.566765e+02 0 0
ch_pu_1997_05_19_243_f 825 3 75 0 1 45 45 right 1 3 /Users/lab/Documents/experiments/2019/surprise/stim/1_noeffect.mov 742 18-Apr-2019 10:09:52 4.536918e+02 4.372481e+02 0 0
ch_pu_1997_05_19_243_f 825 3 76 0 50 45 -45 right 1 3 /Users/lab/Documents/experiments/2019/surprise/stim/7_noeffect.mov 747 18-Apr-2019 10:10:11 -4.338713e+01 4.782883e+02 0 1
ch_pu_1997_05_19_243_f 825 3 77 0 60 -45 -45 left 1 3 /Users/lab/Documents/experiments/2019/surprise/stim/8_noeffect.mov 595 18-Apr-2019 10:10:14 -2.103165e+02 1.817386e+02 0 0
ch_pu_1997_05_19_243_f 825 3 78 0 14 45 -45 right 1 3 /Users/lab/Documents/experiments/2019/surprise/stim/2_noeffect.mov 525 18-Apr-2019 10:10:17 -3.926230e+00 2.979731e+01 0 0
ch_pu_1997_05_19_243_f 825 3 79 0 76 -45 -45 left 1 3 /Users/lab/Documents/experiments/2019/surprise/stim/9_noeffect.mov 591 18-Apr-2019 10:10:20 9.630922e+01 -1.027927e+02 0 0
ch_pu_1997_05_19_243_f 825 3 80 0 37 45 45 right 1 3 /Users/lab/Documents/experiments/2019/surprise/stim/5_noeffect.mov 646 18-Apr-2019 10:10:23 3.464683e+02 4.683363e+02 0 0
