subject_name subjectNumber iTrial unshuffled_trial targetOrientation flankersOrientation response correct onscreen_stim_duration magicShows rt date time_of_day deltaX deltaY surpriseClip isClipTrial
63em04_f21 477 1 48 -45 -45 right 0 5.000000e-01 /Users/lab/Documents/surprise_project/surprise/stim/6_noeffect.mov 1614 06-Apr-2018 13:39:04 8.200229e+01 6.358704e+01 0 1
63em04_f21 477 2 20 -45 -45 right 0 5.000000e-01 /Users/lab/Documents/surprise_project/surprise/stim/3_effect.mov 962 06-Apr-2018 13:39:08 4.846652e+02 1.061742e+02 1 0
63em04_f21 477 3 31 -45 45 left 1 5.000000e-01 /Users/lab/Documents/surprise_project/surprise/stim/4_noeffect.mov 930 06-Apr-2018 13:39:11 -4.915504e+02 2.014107e+01 0 0
63em04_f21 477 4 44 -45 -45 left 1 5.000000e-01 /Users/lab/Documents/surprise_project/surprise/stim/6_effect.mov 1063 06-Apr-2018 13:39:27 1.759507e+02 3.207584e+02 1 1
63em04_f21 477 5 69 45 45 right 1 5.000000e-01 /Users/lab/Documents/surprise_project/surprise/stim/9_noeffect.mov 845 06-Apr-2018 13:39:30 2.060427e+01 -2.389462e+02 0 0
63em04_f21 477 6 15 -45 45 left 1 5.000000e-01 /Users/lab/Documents/surprise_project/surprise/stim/2_noeffect.mov 927 06-Apr-2018 13:39:33 -3.776726e+01 5.404075e+01 0 0
63em04_f21 477 7 24 -45 -45 left 1 5.000000e-01 /Users/lab/Documents/surprise_project/surprise/stim/3_noeffect.mov 747 06-Apr-2018 13:39:37 1.617154e+02 -7.698855e+01 0 0
63em04_f21 477 8 58 45 -45 right 1 5.000000e-01 /Users/lab/Documents/surprise_project/surprise/stim/8_effect.mov 1795 06-Apr-2018 13:39:59 3.426774e+02 5.523807e+01 1 1
63em04_f21 477 9 66 45 -45 right 1 5.000000e-01 /Users/lab/Documents/surprise_project/surprise/stim/9_effect.mov 800 06-Apr-2018 13:40:02 1.606576e+02 -3.441556e+02 1 0
63em04_f21 477 10 72 -45 -45 left 1 5.000000e-01 /Users/lab/Documents/surprise_project/surprise/stim/9_noeffect.mov 779 06-Apr-2018 13:40:05 7.745802e+01 3.194326e+01 0 0
63em04_f21 477 11 71 -45 45 left 1 5.000000e-01 /Users/lab/Documents/surprise_project/surprise/stim/9_noeffect.mov 749 06-Apr-2018 13:40:08 2.426113e+02 -4.202655e+02 0 0
63em04_f21 477 12 46 45 -45 right 1 5.000000e-01 /Users/lab/Documents/surprise_project/surprise/stim/6_noeffect.mov 978 06-Apr-2018 13:40:23 3.419776e+02 1.480831e+02 0 1
63em04_f21 477 13 61 45 45 right 1 5.000000e-01 /Users/lab/Documents/surprise_project/surprise/stim/8_noeffect.mov 1066 06-Apr-2018 13:40:27 -3.752432e+02 -2.158172e+02 0 0
63em04_f21 477 14 65 45 45 right 1 5.000000e-01 /Users/lab/Documents/surprise_project/surprise/stim/9_effect.mov 745 06-Apr-2018 13:40:30 1.235082e+02 5.336899e+00 1 0
63em04_f21 477 15 50 45 -45 right 1 5.000000e-01 /Users/lab/Documents/surprise_project/surprise/stim/7_effect.mov 632 06-Apr-2018 13:40:33 -2.827557e+02 -1.887453e+02 1 0
63em04_f21 477 16 40 -45 -45 right 0 5.000000e-01 /Users/lab/Documents/surprise_project/surprise/stim/5_noeffect.mov 1561 06-Apr-2018 13:40:50 3.425064e+02 3.162932e+01 0 1
63em04_f21 477 17 29 45 45 right 1 5.000000e-01 /Users/lab/Documents/surprise_project/surprise/stim/4_noeffect.mov 916 06-Apr-2018 13:40:53 3.155124e+02 -4.328034e+02 0 0
63em04_f21 477 18 7 -45 45 left 1 5.000000e-01 /Users/lab/Documents/surprise_project/surprise/stim/1_noeffect.mov 1082 06-Apr-2018 13:40:57 2.208104e+01 -4.182950e+02 1 0
63em04_f21 477 19 51 -45 45 left 1 5.000000e-01 /Users/lab/Documents/surprise_project/surprise/stim/7_effect.mov 682 06-Apr-2018 13:41:00 2.741928e+02 -4.536877e+02 1 0
63em04_f21 477 20 59 -45 45 left 1 5.000000e-01 /Users/lab/Documents/surprise_project/surprise/stim/8_effect.mov 1078 06-Apr-2018 13:41:21 -3.651674e+02 1.276182e+02 1 1
63em04_f21 477 21 6 45 -45 right 1 5.000000e-01 /Users/lab/Documents/surprise_project/surprise/stim/1_noeffect.mov 883 06-Apr-2018 13:41:25 4.443810e+02 3.346466e+02 1 0
63em04_f21 477 22 19 -45 45 left 1 5.000000e-01 /Users/lab/Documents/surprise_project/surprise/stim/3_effect.mov 698 06-Apr-2018 13:41:28 4.411376e+02 4.079187e+02 1 0
63em04_f21 477 23 4 -45 -45 left 1 5.000000e-01 /Users/lab/Documents/surprise_project/surprise/stim/1_effect.mov 899 06-Apr-2018 13:41:31 4.797883e+02 -2.376754e+02 1 0
63em04_f21 477 24 62 45 -45 right 1 5.000000e-01 /Users/lab/Documents/surprise_project/surprise/stim/8_noeffect.mov 1095 06-Apr-2018 13:41:52 -7.872758e-01 -2.989208e+01 0 1
63em04_f21 477 25 5 45 45 right 1 5.000000e-01 /Users/lab/Documents/surprise_project/surprise/stim/1_noeffect.mov 799 06-Apr-2018 13:41:55 8.209392e+01 -1.222865e+02 1 0
63em04_f21 477 26 67 -45 45 left 1 5.000000e-01 /Users/lab/Documents/surprise_project/surprise/stim/9_effect.mov 1011 06-Apr-2018 13:41:59 -1.659725e+02 1.566071e+02 1 0
63em04_f21 477 27 33 45 45 right 1 5.000000e-01 /Users/lab/Documents/surprise_project/surprise/stim/5_effect.mov 1096 06-Apr-2018 13:42:02 -1.898691e+02 1.753217e+02 1 0
63em04_f21 477 28 43 -45 45 left 1 5.000000e-01 /Users/lab/Documents/surprise_project/surprise/stim/6_effect.mov 1645 06-Apr-2018 13:42:18 -2.817561e+02 3.908434e+02 1 1
63em04_f21 477 29 39 -45 45 left 1 5.000000e-01 /Users/lab/Documents/surprise_project/surprise/stim/5_noeffect.mov 1147 06-Apr-2018 13:42:22 -4.492924e+02 4.106174e+02 0 0
63em04_f21 477 30 42 45 -45 right 1 5.000000e-01 /Users/lab/Documents/surprise_project/surprise/stim/6_effect.mov 1448 06-Apr-2018 13:42:26 4.544882e+02 1.558848e+02 1 0
63em04_f21 477 31 3 -45 45 left 1 5.000000e-01 /Users/lab/Documents/surprise_project/surprise/stim/1_effect.mov 1081 06-Apr-2018 13:42:29 2.528858e+01 -7.160708e+01 1 0
63em04_f21 477 32 30 45 -45 right 1 5.000000e-01 /Users/lab/Documents/surprise_project/surprise/stim/4_noeffect.mov 813 06-Apr-2018 13:42:46 -1.393889e+02 -4.300577e+02 0 1
63em04_f21 477 33 64 -45 -45 left 1 5.000000e-01 /Users/lab/Documents/surprise_project/surprise/stim/8_noeffect.mov 1398 06-Apr-2018 13:42:50 -9.806378e+01 -1.044954e+02 0 0
63em04_f21 477 34 52 -45 -45 left 1 5.000000e-01 /Users/lab/Documents/surprise_project/surprise/stim/7_effect.mov 1232 06-Apr-2018 13:42:53 -2.314947e+02 -4.440284e+02 1 0
63em04_f21 477 35 34 45 -45 right 1 5.000000e-01 /Users/lab/Documents/surprise_project/surprise/stim/5_effect.mov 682 06-Apr-2018 13:42:57 9.260425e-02 7.152349e+01 1 0
63em04_f21 477 36 2 45 -45 right 1 5.000000e-01 /Users/lab/Documents/surprise_project/surprise/stim/1_effect.mov 1663 06-Apr-2018 13:43:22 5.665498e+00 -2.028808e+02 1 1
63em04_f21 477 37 41 45 45 left 0 5.000000e-01 /Users/lab/Documents/surprise_project/surprise/stim/6_effect.mov 814 06-Apr-2018 13:43:26 -4.565282e+02 -4.844483e+02 1 0
63em04_f21 477 38 54 45 -45 right 1 5.000000e-01 /Users/lab/Documents/surprise_project/surprise/stim/7_noeffect.mov 812 06-Apr-2018 13:43:29 4.887424e+02 -1.738382e+02 0 0
63em04_f21 477 39 21 45 45 right 1 5.000000e-01 /Users/lab/Documents/surprise_project/surprise/stim/3_noeffect.mov 750 06-Apr-2018 13:43:32 -4.473920e+02 -4.435355e+02 0 0
63em04_f21 477 40 55 -45 45 left 1 5.000000e-01 /Users/lab/Documents/surprise_project/surprise/stim/7_noeffect.mov 1512 06-Apr-2018 13:43:52 -1.671840e+02 1.885595e+02 0 1
63em04_f21 477 41 23 -45 45 left 1 5.000000e-01 /Users/lab/Documents/surprise_project/surprise/stim/3_noeffect.mov 848 06-Apr-2018 13:43:55 2.431315e+02 2.313579e+02 0 0
63em04_f21 477 42 49 45 45 right 1 5.000000e-01 /Users/lab/Documents/surprise_project/surprise/stim/7_effect.mov 715 06-Apr-2018 13:43:58 -4.713352e+02 -2.821267e+02 1 0
63em04_f21 477 43 57 45 45 right 1 5.000000e-01 /Users/lab/Documents/surprise_project/surprise/stim/8_effect.mov 662 06-Apr-2018 13:44:01 -2.505572e+01 -1.669188e+02 1 0
63em04_f21 477 44 60 -45 -45 left 1 5.000000e-01 /Users/lab/Documents/surprise_project/surprise/stim/8_effect.mov 1960 06-Apr-2018 13:44:23 -4.674768e+02 3.414751e+02 1 1
63em04_f21 477 45 10 45 -45 right 1 5.000000e-01 /Users/lab/Documents/surprise_project/surprise/stim/2_effect.mov 650 06-Apr-2018 13:44:26 9.201050e+00 2.036104e+02 1 0
63em04_f21 477 46 45 45 45 right 1 5.000000e-01 /Users/lab/Documents/surprise_project/surprise/stim/6_noeffect.mov 728 06-Apr-2018 13:44:29 -3.812831e+01 -2.796974e+02 0 0
63em04_f21 477 47 32 -45 -45 left 1 5.000000e-01 /Users/lab/Documents/surprise_project/surprise/stim/4_noeffect.mov 966 06-Apr-2018 13:44:33 2.990990e+02 -1.829262e+02 0 0
63em04_f21 477 48 11 -45 45 left 1 5.000000e-01 /Users/lab/Documents/surprise_project/surprise/stim/2_effect.mov 1710 06-Apr-2018 13:44:59 2.180834e+02 3.621462e+02 1 1
63em04_f21 477 49 9 45 45 right 1 5.000000e-01 /Users/lab/Documents/surprise_project/surprise/stim/2_effect.mov 783 06-Apr-2018 13:45:02 -1.894028e+02 -2.484172e+02 1 0
63em04_f21 477 50 38 45 -45 right 1 5.000000e-01 /Users/lab/Documents/surprise_project/surprise/stim/5_noeffect.mov 649 06-Apr-2018 13:45:05 2.606981e+02 1.656976e+02 0 0
63em04_f21 477 51 14 45 -45 right 1 5.000000e-01 /Users/lab/Documents/surprise_project/surprise/stim/2_noeffect.mov 710 06-Apr-2018 13:45:08 2.074035e+02 2.390151e+02 0 0
63em04_f21 477 52 12 -45 -45 left 1 5.000000e-01 /Users/lab/Documents/surprise_project/surprise/stim/2_effect.mov 1667 06-Apr-2018 13:45:34 1.396229e+01 -2.559175e+02 1 1
63em04_f21 477 53 22 45 -45 right 1 5.000000e-01 /Users/lab/Documents/surprise_project/surprise/stim/3_noeffect.mov 712 06-Apr-2018 13:45:38 -2.224368e+02 2.176758e+02 0 0
63em04_f21 477 54 13 45 45 right 1 5.000000e-01 /Users/lab/Documents/surprise_project/surprise/stim/2_noeffect.mov 715 06-Apr-2018 13:45:41 -3.734977e+01 6.403903e+00 0 0
63em04_f21 477 55 47 -45 45 left 1 5.000000e-01 /Users/lab/Documents/surprise_project/surprise/stim/6_noeffect.mov 832 06-Apr-2018 13:45:44 7.827497e+00 -3.029422e+01 0 0
63em04_f21 477 56 17 45 45 right 1 5.000000e-01 /Users/lab/Documents/surprise_project/surprise/stim/3_effect.mov 1394 06-Apr-2018 13:46:03 4.858628e+01 3.992748e+02 1 1
63em04_f21 477 57 1 45 45 right 1 5.000000e-01 /Users/lab/Documents/surprise_project/surprise/stim/1_effect.mov 948 06-Apr-2018 13:46:06 -1.082352e+02 4.439538e+02 1 0
63em04_f21 477 58 28 -45 -45 left 1 5.000000e-01 /Users/lab/Documents/surprise_project/surprise/stim/4_effect.mov 763 06-Apr-2018 13:46:09 -4.738100e+02 3.664659e+02 1 0
63em04_f21 477 59 37 45 45 right 1 5.000000e-01 /Users/lab/Documents/surprise_project/surprise/stim/5_noeffect.mov 1645 06-Apr-2018 13:46:13 1.912924e+02 3.682687e+01 0 0
63em04_f21 477 60 56 -45 -45 left 1 5.000000e-01 /Users/lab/Documents/surprise_project/surprise/stim/7_noeffect.mov 1878 06-Apr-2018 13:46:33 -3.341605e+02 -3.237816e+02 0 1
63em04_f21 477 61 68 -45 -45 left 1 5.000000e-01 /Users/lab/Documents/surprise_project/surprise/stim/9_effect.mov 900 06-Apr-2018 13:46:37 -4.014455e+01 -3.104088e+01 1 0
63em04_f21 477 62 36 -45 -45 left 1 5.000000e-01 /Users/lab/Documents/surprise_project/surprise/stim/5_effect.mov 816 06-Apr-2018 13:46:40 9.274240e+00 -4.551838e+02 1 0
63em04_f21 477 63 53 45 45 left 0 5.000000e-01 /Users/lab/Documents/surprise_project/surprise/stim/7_noeffect.mov 582 06-Apr-2018 13:46:43 3.459919e+02 -3.815823e+02 0 0
63em04_f21 477 64 27 -45 45 left 1 5.000000e-01 /Users/lab/Documents/surprise_project/surprise/stim/4_effect.mov 1068 06-Apr-2018 13:47:00 -2.927509e+02 3.366969e+02 1 1
63em04_f21 477 65 18 45 -45 right 1 5.000000e-01 /Users/lab/Documents/surprise_project/surprise/stim/3_effect.mov 682 06-Apr-2018 13:47:04 1.091467e+02 2.288513e+02 1 0
63em04_f21 477 66 63 -45 45 left 1 5.000000e-01 /Users/lab/Documents/surprise_project/surprise/stim/8_noeffect.mov 649 06-Apr-2018 13:47:07 2.706603e+02 4.026849e+02 0 0
63em04_f21 477 67 36 -45 45 left 1 5.000000e-01 /Users/lab/Documents/surprise_project/surprise/stim/5_effect.mov 715 06-Apr-2018 13:47:10 -1.220675e+02 -4.138759e+02 1 0
63em04_f21 477 68 70 45 -45 right 1 5.000000e-01 /Users/lab/Documents/surprise_project/surprise/stim/9_noeffect.mov 1363 06-Apr-2018 13:47:32 -3.127219e+02 -2.712712e+02 0 1
63em04_f21 477 69 25 45 45 right 1 5.000000e-01 /Users/lab/Documents/surprise_project/surprise/stim/4_effect.mov 895 06-Apr-2018 13:47:35 -9.978069e+00 -1.543292e+02 1 0
63em04_f21 477 70 26 45 -45 right 1 5.000000e-01 /Users/lab/Documents/surprise_project/surprise/stim/4_effect.mov 616 06-Apr-2018 13:47:38 5.654700e+01 -1.800206e+02 1 0
63em04_f21 477 71 16 -45 -45 left 1 5.000000e-01 /Users/lab/Documents/surprise_project/surprise/stim/2_noeffect.mov 862 06-Apr-2018 13:47:41 1.343693e+02 3.426443e+02 0 0
63em04_f21 477 72 8 -45 -45 left 1 5.000000e-01 /Users/lab/Documents/surprise_project/surprise/stim/1_noeffect.mov 781 06-Apr-2018 13:47:45 -2.386675e+02 2.699155e+02 1 0
