subject_name subjectNumber iTrial unshuffled_trial targetOrientation flankersOrientation response correct onscreen_stim_duration magicShows rt date time_of_day deltaX deltaY surpriseClip isClipTrial
62vr19_f20 38 1 6 45 -45 right 1 5.000000e-01 /Users/lab/Documents/surprise_project/surprise/stim/1_noeffect.mov 1280 13-Mar-2018 12:46:01 -1.491169e+02 -4.828711e+02 1 1
62vr19_f20 38 2 3 -45 45 left 1 5.000000e-01 /Users/lab/Documents/surprise_project/surprise/stim/1_effect.mov 1167 13-Mar-2018 12:46:04 9.417007e+01 3.281844e+02 1 0
62vr19_f20 38 3 4 -45 -45 left 1 5.000000e-01 /Users/lab/Documents/surprise_project/surprise/stim/1_effect.mov 1502 13-Mar-2018 12:46:08 4.357417e+02 -2.484949e+02 1 0
62vr19_f20 38 4 61 45 45 right 1 5.000000e-01 /Users/lab/Documents/surprise_project/surprise/stim/8_noeffect.mov 1381 13-Mar-2018 12:46:30 -1.375087e+00 7.310914e+01 0 1
62vr19_f20 38 5 53 45 45 right 1 5.000000e-01 /Users/lab/Documents/surprise_project/surprise/stim/7_noeffect.mov 1216 13-Mar-2018 12:46:33 4.120934e+02 -1.402990e+02 0 0
62vr19_f20 38 6 16 -45 -45 left 1 5.000000e-01 /Users/lab/Documents/surprise_project/surprise/stim/2_noeffect.mov 1067 13-Mar-2018 12:46:37 -2.027033e+02 -7.496490e+01 0 0
62vr19_f20 38 7 38 45 -45 right 1 5.000000e-01 /Users/lab/Documents/surprise_project/surprise/stim/5_noeffect.mov 1269 13-Mar-2018 12:46:40 3.280176e+02 -4.491477e+02 0 0
62vr19_f20 38 8 44 -45 -45 left 1 5.000000e-01 /Users/lab/Documents/surprise_project/surprise/stim/6_effect.mov 1480 13-Mar-2018 12:46:56 -1.408973e+02 3.120795e+02 1 1
62vr19_f20 38 9 50 45 -45 right 1 5.000000e-01 /Users/lab/Documents/surprise_project/surprise/stim/7_effect.mov 1052 13-Mar-2018 12:47:00 4.105494e+02 1.326574e+02 1 0
62vr19_f20 38 10 17 45 45 right 1 5.000000e-01 /Users/lab/Documents/surprise_project/surprise/stim/3_effect.mov 1018 13-Mar-2018 12:47:03 -3.132742e+02 2.547407e+02 1 0
62vr19_f20 38 11 54 45 -45 right 1 5.000000e-01 /Users/lab/Documents/surprise_project/surprise/stim/7_noeffect.mov 1068 13-Mar-2018 12:47:06 1.324988e+02 -2.440099e+01 0 0
62vr19_f20 38 12 5 45 45 right 1 5.000000e-01 /Users/lab/Documents/surprise_project/surprise/stim/1_noeffect.mov 1380 13-Mar-2018 12:47:42 3.276080e+02 1.188924e+02 1 1
62vr19_f20 38 13 28 -45 -45 left 1 5.000000e-01 /Users/lab/Documents/surprise_project/surprise/stim/4_effect.mov 1018 13-Mar-2018 12:47:45 1.474994e+02 -2.888152e+02 1 0
62vr19_f20 38 14 64 -45 -45 left 1 5.000000e-01 /Users/lab/Documents/surprise_project/surprise/stim/8_noeffect.mov 1185 13-Mar-2018 12:47:49 8.166052e-01 -2.588466e+02 0 0
62vr19_f20 38 15 21 45 45 right 1 5.000000e-01 /Users/lab/Documents/surprise_project/surprise/stim/3_noeffect.mov 1117 13-Mar-2018 12:47:52 -1.437404e+02 -4.511915e+02 0 0
62vr19_f20 38 16 33 45 45 right 1 5.000000e-01 /Users/lab/Documents/surprise_project/surprise/stim/5_effect.mov 1265 13-Mar-2018 12:48:10 1.678241e+02 1.364093e+02 1 1
62vr19_f20 38 17 25 45 45 right 1 5.000000e-01 /Users/lab/Documents/surprise_project/surprise/stim/4_effect.mov 1068 13-Mar-2018 12:48:13 -3.254579e+01 6.083576e+01 1 0
62vr19_f20 38 18 8 -45 -45 left 1 5.000000e-01 /Users/lab/Documents/surprise_project/surprise/stim/1_noeffect.mov 1250 13-Mar-2018 12:48:17 4.933186e+02 -2.906405e+02 1 0
62vr19_f20 38 19 51 -45 45 left 1 5.000000e-01 /Users/lab/Documents/surprise_project/surprise/stim/7_effect.mov 1103 13-Mar-2018 12:48:20 2.667489e+01 1.015182e+02 1 0
62vr19_f20 38 20 32 -45 -45 left 1 5.000000e-01 /Users/lab/Documents/surprise_project/surprise/stim/4_noeffect.mov 1380 13-Mar-2018 12:48:38 -1.652273e+02 -1.401585e+02 0 1
62vr19_f20 38 21 62 45 -45 right 1 5.000000e-01 /Users/lab/Documents/surprise_project/surprise/stim/8_noeffect.mov 1117 13-Mar-2018 12:48:42 -1.309937e+02 4.765420e+02 0 0
62vr19_f20 38 22 57 45 45 right 1 5.000000e-01 /Users/lab/Documents/surprise_project/surprise/stim/8_effect.mov 1233 13-Mar-2018 12:48:45 4.369111e+02 -1.634389e+02 1 0
62vr19_f20 38 23 24 -45 -45 left 1 5.000000e-01 /Users/lab/Documents/surprise_project/surprise/stim/3_noeffect.mov 1168 13-Mar-2018 12:48:49 -3.279841e+01 3.059053e+02 0 0
62vr19_f20 38 24 13 45 45 right 1 5.000000e-01 /Users/lab/Documents/surprise_project/surprise/stim/2_noeffect.mov 1281 13-Mar-2018 12:49:14 -2.568913e+02 -1.734066e+02 0 1
62vr19_f20 38 25 18 45 -45 right 1 5.000000e-01 /Users/lab/Documents/surprise_project/surprise/stim/3_effect.mov 983 13-Mar-2018 12:49:17 -1.052964e+02 -1.614974e+01 1 0
62vr19_f20 38 26 37 45 45 right 1 5.000000e-01 /Users/lab/Documents/surprise_project/surprise/stim/5_noeffect.mov 1252 13-Mar-2018 12:49:21 3.333648e+02 -1.559647e+01 0 0
62vr19_f20 38 27 30 45 -45 right 1 5.000000e-01 /Users/lab/Documents/surprise_project/surprise/stim/4_noeffect.mov 1085 13-Mar-2018 12:49:24 -6.422886e+01 1.162749e+02 0 0
62vr19_f20 38 28 49 45 45 right 1 5.000000e-01 /Users/lab/Documents/surprise_project/surprise/stim/7_effect.mov 1397 13-Mar-2018 12:49:44 8.819182e+01 1.267465e+02 1 1
62vr19_f20 38 29 7 -45 45 left 1 5.000000e-01 /Users/lab/Documents/surprise_project/surprise/stim/1_noeffect.mov 1233 13-Mar-2018 12:49:48 -1.248697e+02 -3.127517e+02 1 0
62vr19_f20 38 30 60 -45 -45 left 1 5.000000e-01 /Users/lab/Documents/surprise_project/surprise/stim/8_effect.mov 1101 13-Mar-2018 12:49:51 -3.649169e+02 3.697930e+02 1 0
62vr19_f20 38 31 47 -45 45 left 1 5.000000e-01 /Users/lab/Documents/surprise_project/surprise/stim/6_noeffect.mov 1152 13-Mar-2018 12:49:55 -1.822169e+02 -1.555351e+02 0 0
62vr19_f20 38 32 20 -45 -45 left 1 5.000000e-01 /Users/lab/Documents/surprise_project/surprise/stim/3_effect.mov 1396 13-Mar-2018 12:50:14 3.454864e+02 1.284071e+02 1 1
62vr19_f20 38 33 27 -45 45 left 1 5.000000e-01 /Users/lab/Documents/surprise_project/surprise/stim/4_effect.mov 1067 13-Mar-2018 12:50:17 -1.068480e+02 3.489310e+02 1 0
62vr19_f20 38 34 34 45 -45 right 1 5.000000e-01 /Users/lab/Documents/surprise_project/surprise/stim/5_effect.mov 1219 13-Mar-2018 12:50:21 -2.240639e+02 -2.175418e+02 1 0
62vr19_f20 38 35 22 45 -45 right 1 5.000000e-01 /Users/lab/Documents/surprise_project/surprise/stim/3_noeffect.mov 1399 13-Mar-2018 12:50:24 4.152768e+02 -3.520328e+02 0 0
62vr19_f20 38 36 31 -45 45 left 1 5.000000e-01 /Users/lab/Documents/surprise_project/surprise/stim/4_noeffect.mov 1380 13-Mar-2018 12:50:42 2.415572e+02 3.674757e+02 0 1
62vr19_f20 38 37 19 -45 45 left 1 5.000000e-01 /Users/lab/Documents/surprise_project/surprise/stim/3_effect.mov 1166 13-Mar-2018 12:50:46 4.988549e+02 -3.603327e+02 1 0
62vr19_f20 38 38 41 45 45 right 1 5.000000e-01 /Users/lab/Documents/surprise_project/surprise/stim/6_effect.mov 1319 13-Mar-2018 12:50:50 -5.715405e+01 -2.658837e+02 1 0
62vr19_f20 38 39 26 45 -45 right 1 5.000000e-01 /Users/lab/Documents/surprise_project/surprise/stim/4_effect.mov 1267 13-Mar-2018 12:50:53 -2.641958e+02 1.572406e+02 1 0
62vr19_f20 38 40 58 45 -45 right 1 5.000000e-01 /Users/lab/Documents/surprise_project/surprise/stim/8_effect.mov 1348 13-Mar-2018 12:51:15 -2.504689e+02 -3.300635e+02 1 1
62vr19_f20 38 41 71 -45 45 left 1 5.000000e-01 /Users/lab/Documents/surprise_project/surprise/stim/9_noeffect.mov 1201 13-Mar-2018 12:51:18 4.378919e+02 -2.454678e+01 0 0
62vr19_f20 38 42 67 -45 45 left 1 5.000000e-01 /Users/lab/Documents/surprise_project/surprise/stim/9_effect.mov 1235 13-Mar-2018 12:51:22 3.312059e+02 -8.709180e+01 1 0
62vr19_f20 38 43 12 -45 -45 left 1 5.000000e-01 /Users/lab/Documents/surprise_project/surprise/stim/2_effect.mov 1269 13-Mar-2018 12:51:25 -2.343052e+02 -4.828340e+02 1 0
62vr19_f20 38 44 45 45 45 right 1 5.000000e-01 /Users/lab/Documents/surprise_project/surprise/stim/6_noeffect.mov 1333 13-Mar-2018 12:51:41 -1.760826e+02 1.193261e+02 0 1
62vr19_f20 38 45 15 -45 45 left 1 5.000000e-01 /Users/lab/Documents/surprise_project/surprise/stim/2_noeffect.mov 1217 13-Mar-2018 12:51:44 2.496066e+02 -3.402620e+02 0 0
62vr19_f20 38 46 56 -45 -45 left 1 5.000000e-01 /Users/lab/Documents/surprise_project/surprise/stim/7_noeffect.mov 1315 13-Mar-2018 12:51:48 1.910279e+02 4.912535e+02 0 0
62vr19_f20 38 47 40 -45 -45 left 1 5.000000e-01 /Users/lab/Documents/surprise_project/surprise/stim/5_noeffect.mov 1401 13-Mar-2018 12:51:52 -5.752940e+01 -4.934475e+02 0 0
62vr19_f20 38 48 65 45 45 right 1 5.000000e-01 /Users/lab/Documents/surprise_project/surprise/stim/9_effect.mov 1479 13-Mar-2018 12:52:14 -1.770504e+02 1.173550e+02 1 1
62vr19_f20 38 49 9 45 45 right 1 5.000000e-01 /Users/lab/Documents/surprise_project/surprise/stim/2_effect.mov 1166 13-Mar-2018 12:52:18 -3.339068e+02 -3.125366e+02 1 0
62vr19_f20 38 50 1 45 45 right 1 5.000000e-01 /Users/lab/Documents/surprise_project/surprise/stim/1_effect.mov 1268 13-Mar-2018 12:52:21 1.627051e+01 -2.670171e+02 1 0
62vr19_f20 38 51 68 -45 -45 left 1 5.000000e-01 /Users/lab/Documents/surprise_project/surprise/stim/9_effect.mov 1316 13-Mar-2018 12:52:25 9.527604e+01 4.362508e+01 1 0
62vr19_f20 38 52 55 -45 45 left 1 5.000000e-01 /Users/lab/Documents/surprise_project/surprise/stim/7_noeffect.mov 1346 13-Mar-2018 12:52:45 -1.521164e+02 1.830715e+02 0 1
62vr19_f20 38 53 2 45 -45 right 1 5.000000e-01 /Users/lab/Documents/surprise_project/surprise/stim/1_effect.mov 1117 13-Mar-2018 12:52:48 5.608999e+01 2.469778e+02 1 0
62vr19_f20 38 54 63 -45 45 left 1 5.000000e-01 /Users/lab/Documents/surprise_project/surprise/stim/8_noeffect.mov 1118 13-Mar-2018 12:52:51 -3.023322e+02 6.960079e+01 0 0
62vr19_f20 38 55 36 -45 -45 left 1 5.000000e-01 /Users/lab/Documents/surprise_project/surprise/stim/5_effect.mov 1217 13-Mar-2018 12:52:55 4.866765e+02 -6.042791e+01 1 0
62vr19_f20 38 56 70 45 -45 right 1 5.000000e-01 /Users/lab/Documents/surprise_project/surprise/stim/9_noeffect.mov 1264 13-Mar-2018 12:53:17 -1.636358e+02 2.029235e+02 0 1
62vr19_f20 38 57 39 -45 45 left 1 5.000000e-01 /Users/lab/Documents/surprise_project/surprise/stim/5_noeffect.mov 1102 13-Mar-2018 12:53:21 2.884586e+02 5.116815e+01 0 0
62vr19_f20 38 58 72 -45 -45 left 1 5.000000e-01 /Users/lab/Documents/surprise_project/surprise/stim/9_noeffect.mov 1134 13-Mar-2018 12:53:24 -2.056445e+02 2.326974e+02 0 0
62vr19_f20 38 59 52 -45 -45 left 1 5.000000e-01 /Users/lab/Documents/surprise_project/surprise/stim/7_effect.mov 1100 13-Mar-2018 12:53:27 -3.471618e+01 -1.164427e+02 1 0
62vr19_f20 38 60 69 45 45 right 1 5.000000e-01 /Users/lab/Documents/surprise_project/surprise/stim/9_noeffect.mov 1298 13-Mar-2018 12:53:50 -2.444068e+02 -1.618005e+02 0 1
62vr19_f20 38 61 36 -45 45 left 1 5.000000e-01 /Users/lab/Documents/surprise_project/surprise/stim/5_effect.mov 1134 13-Mar-2018 12:53:53 2.416106e+02 -4.882305e+02 1 0
62vr19_f20 38 62 48 -45 -45 left 1 5.000000e-01 /Users/lab/Documents/surprise_project/surprise/stim/6_noeffect.mov 1284 13-Mar-2018 12:53:57 1.889535e+02 -7.004638e+01 0 0
62vr19_f20 38 63 29 45 45 right 1 5.000000e-01 /Users/lab/Documents/surprise_project/surprise/stim/4_noeffect.mov 1052 13-Mar-2018 12:54:00 -2.072604e+02 -4.406501e+02 0 0
62vr19_f20 38 64 59 -45 45 left 1 5.000000e-01 /Users/lab/Documents/surprise_project/surprise/stim/8_effect.mov 1397 13-Mar-2018 12:54:22 -2.115888e+02 -2.686659e+01 1 1
62vr19_f20 38 65 11 -45 45 left 1 5.000000e-01 /Users/lab/Documents/surprise_project/surprise/stim/2_effect.mov 1166 13-Mar-2018 12:54:25 -1.881321e+02 -4.706197e+02 1 0
62vr19_f20 38 66 46 45 -45 right 1 5.000000e-01 /Users/lab/Documents/surprise_project/surprise/stim/6_noeffect.mov 1234 13-Mar-2018 12:54:29 1.370802e+02 4.200669e+02 0 0
62vr19_f20 38 67 42 45 -45 right 1 5.000000e-01 /Users/lab/Documents/surprise_project/surprise/stim/6_effect.mov 1085 13-Mar-2018 12:54:32 6.692448e+01 7.222003e+01 1 0
62vr19_f20 38 68 66 45 -45 right 1 5.000000e-01 /Users/lab/Documents/surprise_project/surprise/stim/9_effect.mov 1314 13-Mar-2018 12:54:54 -4.054001e+02 1.361684e+02 1 1
62vr19_f20 38 69 14 45 -45 right 1 5.000000e-01 /Users/lab/Documents/surprise_project/surprise/stim/2_noeffect.mov 1302 13-Mar-2018 12:54:58 5.191267e+01 2.317889e+02 0 0
62vr19_f20 38 70 10 45 -45 right 1 5.000000e-01 /Users/lab/Documents/surprise_project/surprise/stim/2_effect.mov 1118 13-Mar-2018 12:55:01 3.350715e+02 4.783416e+02 1 0
62vr19_f20 38 71 43 -45 45 left 1 5.000000e-01 /Users/lab/Documents/surprise_project/surprise/stim/6_effect.mov 1235 13-Mar-2018 12:55:05 2.600568e+02 4.227533e+02 1 0
62vr19_f20 38 72 23 -45 45 left 1 5.000000e-01 /Users/lab/Documents/surprise_project/surprise/stim/3_noeffect.mov 1333 13-Mar-2018 12:55:09 1.910611e+02 -8.507567e+01 0 0
