subject_name subjectNumber iTrial unshuffled_trial targetOrientation flankersOrientation response correct onscreen_stim_duration magicShows rt date time_of_day deltaX deltaY surpriseClip isClipTrial
70ll04_F19 445 1 62 45 -45 right 1 5.000000e-01 /Users/lab/Documents/surprise_project/surprise/stim/8_noeffect.mov 2628 05-Apr-2018 10:25:13 2.644193e+02 4.751688e+02 0 1
70ll04_F19 445 2 26 45 -45 right 1 5.000000e-01 /Users/lab/Documents/surprise_project/surprise/stim/4_effect.mov 763 05-Apr-2018 10:25:16 -3.121000e+02 3.584564e+01 1 0
70ll04_F19 445 3 42 45 -45 right 1 5.000000e-01 /Users/lab/Documents/surprise_project/surprise/stim/6_effect.mov 729 05-Apr-2018 10:25:19 9.762643e+01 4.452328e+02 1 0
70ll04_F19 445 4 15 -45 45 left 1 5.000000e-01 /Users/lab/Documents/surprise_project/surprise/stim/2_noeffect.mov 1019 05-Apr-2018 10:25:44 2.825995e+01 -4.823607e+02 0 1
70ll04_F19 445 5 1 45 45 right 1 5.000000e-01 /Users/lab/Documents/surprise_project/surprise/stim/1_effect.mov 697 05-Apr-2018 10:25:47 2.312366e+02 1.952846e+02 1 0
70ll04_F19 445 6 30 45 -45 right 1 5.000000e-01 /Users/lab/Documents/surprise_project/surprise/stim/4_noeffect.mov 596 05-Apr-2018 10:25:50 6.073815e+01 4.336845e+02 0 0
70ll04_F19 445 7 49 45 45 right 1 5.000000e-01 /Users/lab/Documents/surprise_project/surprise/stim/7_effect.mov 473 05-Apr-2018 10:25:53 1.262071e+02 -2.127506e+02 1 0
70ll04_F19 445 8 23 -45 45 left 1 5.000000e-01 /Users/lab/Documents/surprise_project/surprise/stim/3_noeffect.mov 1060 05-Apr-2018 10:26:12 1.441585e+02 1.815946e+02 0 1
70ll04_F19 445 9 69 45 45 right 1 5.000000e-01 /Users/lab/Documents/surprise_project/surprise/stim/9_noeffect.mov 900 05-Apr-2018 10:26:15 2.214546e+02 -8.792815e+01 0 0
70ll04_F19 445 10 10 45 -45 right 1 5.000000e-01 /Users/lab/Documents/surprise_project/surprise/stim/2_effect.mov 612 05-Apr-2018 10:26:18 3.768682e+02 2.447186e+02 1 0
70ll04_F19 445 11 36 -45 -45 left 1 5.000000e-01 /Users/lab/Documents/surprise_project/surprise/stim/5_effect.mov 813 05-Apr-2018 10:26:22 1.357964e+02 4.747554e+02 1 0
70ll04_F19 445 12 20 -45 -45 left 1 5.000000e-01 /Users/lab/Documents/surprise_project/surprise/stim/3_effect.mov 1145 05-Apr-2018 10:26:40 -3.463958e+02 4.848060e+02 1 1
70ll04_F19 445 13 33 45 45 right 1 5.000000e-01 /Users/lab/Documents/surprise_project/surprise/stim/5_effect.mov 595 05-Apr-2018 10:26:44 3.984611e+01 1.617796e+02 1 0
70ll04_F19 445 14 57 45 45 right 1 5.000000e-01 /Users/lab/Documents/surprise_project/surprise/stim/8_effect.mov 748 05-Apr-2018 10:26:47 2.969465e+02 1.173345e+02 1 0
70ll04_F19 445 15 65 45 45 right 1 5.000000e-01 /Users/lab/Documents/surprise_project/surprise/stim/9_effect.mov 780 05-Apr-2018 10:26:50 -4.469887e+02 -2.562528e+02 1 0
70ll04_F19 445 16 47 -45 45 left 1 5.000000e-01 /Users/lab/Documents/surprise_project/surprise/stim/6_noeffect.mov 1062 05-Apr-2018 10:27:05 -4.789893e+02 4.634698e+02 0 1
70ll04_F19 445 17 43 -45 45 left 1 5.000000e-01 /Users/lab/Documents/surprise_project/surprise/stim/6_effect.mov 862 05-Apr-2018 10:27:08 3.932735e+02 2.768518e+02 1 0
70ll04_F19 445 18 2 45 -45 right 1 5.000000e-01 /Users/lab/Documents/surprise_project/surprise/stim/1_effect.mov 894 05-Apr-2018 10:27:12 -3.538595e+02 1.731431e+02 1 0
70ll04_F19 445 19 50 45 -45 right 1 5.000000e-01 /Users/lab/Documents/surprise_project/surprise/stim/7_effect.mov 832 05-Apr-2018 10:27:15 1.930639e+02 1.173874e+02 1 0
70ll04_F19 445 20 60 -45 -45 left 1 5.000000e-01 /Users/lab/Documents/surprise_project/surprise/stim/8_effect.mov 1079 05-Apr-2018 10:27:36 -3.181348e+02 -4.595883e+02 1 1
70ll04_F19 445 21 48 -45 -45 left 1 5.000000e-01 /Users/lab/Documents/surprise_project/surprise/stim/6_noeffect.mov 730 05-Apr-2018 10:27:39 1.646464e+01 -3.432205e+02 0 0
70ll04_F19 445 22 28 -45 -45 left 1 5.000000e-01 /Users/lab/Documents/surprise_project/surprise/stim/4_effect.mov 632 05-Apr-2018 10:27:42 -2.237792e+02 -3.282093e+02 1 0
70ll04_F19 445 23 61 45 45 right 1 5.000000e-01 /Users/lab/Documents/surprise_project/surprise/stim/8_noeffect.mov 648 05-Apr-2018 10:27:45 3.061346e-01 4.718176e+02 0 0
70ll04_F19 445 24 11 -45 45 left 1 5.000000e-01 /Users/lab/Documents/surprise_project/surprise/stim/2_effect.mov 967 05-Apr-2018 10:28:11 -1.565432e+02 2.548768e+02 1 1
70ll04_F19 445 25 36 -45 45 left 1 5.000000e-01 /Users/lab/Documents/surprise_project/surprise/stim/5_effect.mov 731 05-Apr-2018 10:28:14 -2.362395e+02 1.514334e+02 1 0
70ll04_F19 445 26 19 -45 45 left 1 5.000000e-01 /Users/lab/Documents/surprise_project/surprise/stim/3_effect.mov 762 05-Apr-2018 10:28:17 3.227423e+02 -3.669577e+02 1 0
70ll04_F19 445 27 54 45 -45 right 1 5.000000e-01 /Users/lab/Documents/surprise_project/surprise/stim/7_noeffect.mov 766 05-Apr-2018 10:28:21 2.203380e+02 -2.242135e+02 0 0
70ll04_F19 445 28 71 -45 45 left 1 5.000000e-01 /Users/lab/Documents/surprise_project/surprise/stim/9_noeffect.mov 1043 05-Apr-2018 10:28:43 3.423073e+02 -2.843232e+02 0 1
70ll04_F19 445 29 59 -45 45 left 1 5.000000e-01 /Users/lab/Documents/surprise_project/surprise/stim/8_effect.mov 766 05-Apr-2018 10:28:46 -6.143392e+01 4.864298e+02 1 0
70ll04_F19 445 30 22 45 -45 right 1 5.000000e-01 /Users/lab/Documents/surprise_project/surprise/stim/3_noeffect.mov 779 05-Apr-2018 10:28:49 -1.829116e+02 4.790652e+02 0 0
70ll04_F19 445 31 16 -45 -45 left 1 5.000000e-01 /Users/lab/Documents/surprise_project/surprise/stim/2_noeffect.mov 765 05-Apr-2018 10:28:52 3.989980e+02 1.779690e+02 0 0
70ll04_F19 445 32 45 45 45 right 1 5.000000e-01 /Users/lab/Documents/surprise_project/surprise/stim/6_noeffect.mov 1762 05-Apr-2018 10:29:08 3.158972e+02 -3.042385e+02 0 1
70ll04_F19 445 33 29 45 45 right 1 5.000000e-01 /Users/lab/Documents/surprise_project/surprise/stim/4_noeffect.mov 715 05-Apr-2018 10:29:11 7.957940e+01 -4.078207e+02 0 0
70ll04_F19 445 34 5 45 45 right 1 5.000000e-01 /Users/lab/Documents/surprise_project/surprise/stim/1_noeffect.mov 766 05-Apr-2018 10:29:15 4.006067e+02 -9.250778e+01 1 0
70ll04_F19 445 35 67 -45 45 left 1 5.000000e-01 /Users/lab/Documents/surprise_project/surprise/stim/9_effect.mov 677 05-Apr-2018 10:29:18 -3.183449e+02 -2.338966e+02 1 0
70ll04_F19 445 36 40 -45 -45 left 1 5.000000e-01 /Users/lab/Documents/surprise_project/surprise/stim/5_noeffect.mov 1419 05-Apr-2018 10:29:35 -2.949365e+02 -8.712171e+01 0 1
70ll04_F19 445 37 64 -45 -45 left 1 5.000000e-01 /Users/lab/Documents/surprise_project/surprise/stim/8_noeffect.mov 629 05-Apr-2018 10:29:38 4.192442e+01 -3.015982e+02 0 0
70ll04_F19 445 38 25 45 45 right 1 5.000000e-01 /Users/lab/Documents/surprise_project/surprise/stim/4_effect.mov 1028 05-Apr-2018 10:29:42 6.884497e+01 2.877697e+02 1 0
70ll04_F19 445 39 24 -45 -45 left 1 5.000000e-01 /Users/lab/Documents/surprise_project/surprise/stim/3_noeffect.mov 731 05-Apr-2018 10:29:45 -3.599099e+02 1.340285e+02 0 0
70ll04_F19 445 40 51 -45 45 left 1 5.000000e-01 /Users/lab/Documents/surprise_project/surprise/stim/7_effect.mov 993 05-Apr-2018 10:30:04 -7.999894e+01 4.542137e+02 1 1
70ll04_F19 445 41 31 -45 45 left 1 5.000000e-01 /Users/lab/Documents/surprise_project/surprise/stim/4_noeffect.mov 732 05-Apr-2018 10:30:07 4.155148e+02 1.656534e+02 0 0
70ll04_F19 445 42 56 -45 -45 left 1 5.000000e-01 /Users/lab/Documents/surprise_project/surprise/stim/7_noeffect.mov 683 05-Apr-2018 10:30:10 -4.108334e+02 1.000045e+02 0 0
70ll04_F19 445 43 70 45 -45 right 1 5.000000e-01 /Users/lab/Documents/surprise_project/surprise/stim/9_noeffect.mov 766 05-Apr-2018 10:30:14 -4.910625e+02 3.201433e+02 0 0
70ll04_F19 445 44 18 45 -45 right 1 5.000000e-01 /Users/lab/Documents/surprise_project/surprise/stim/3_effect.mov 1443 05-Apr-2018 10:30:33 4.235951e+02 -3.544702e+02 1 1
70ll04_F19 445 45 6 45 -45 right 1 5.000000e-01 /Users/lab/Documents/surprise_project/surprise/stim/1_noeffect.mov 679 05-Apr-2018 10:30:36 4.805994e+02 2.708329e+02 1 0
70ll04_F19 445 46 4 -45 -45 left 1 5.000000e-01 /Users/lab/Documents/surprise_project/surprise/stim/1_effect.mov 779 05-Apr-2018 10:30:39 -2.226617e+02 3.558998e+02 1 0
70ll04_F19 445 47 7 -45 45 left 1 5.000000e-01 /Users/lab/Documents/surprise_project/surprise/stim/1_noeffect.mov 488 05-Apr-2018 10:30:42 2.432876e+02 -4.288697e+02 1 0
70ll04_F19 445 48 9 45 45 right 1 5.000000e-01 /Users/lab/Documents/surprise_project/surprise/stim/2_effect.mov 1225 05-Apr-2018 10:31:08 7.880241e+01 2.627421e+02 1 1
70ll04_F19 445 49 55 -45 45 left 1 5.000000e-01 /Users/lab/Documents/surprise_project/surprise/stim/7_noeffect.mov 778 05-Apr-2018 10:31:11 2.424116e+02 1.355075e+02 0 0
70ll04_F19 445 50 44 -45 -45 left 1 5.000000e-01 /Users/lab/Documents/surprise_project/surprise/stim/6_effect.mov 682 05-Apr-2018 10:31:14 -2.083127e+02 -6.600959e+01 1 0
70ll04_F19 445 51 37 45 45 right 1 5.000000e-01 /Users/lab/Documents/surprise_project/surprise/stim/5_noeffect.mov 896 05-Apr-2018 10:31:17 2.485350e+02 -2.874488e+02 0 0
70ll04_F19 445 52 52 -45 -45 left 1 5.000000e-01 /Users/lab/Documents/surprise_project/surprise/stim/7_effect.mov 895 05-Apr-2018 10:31:37 -5.022898e+01 4.058336e+02 1 1
70ll04_F19 445 53 41 45 45 right 1 5.000000e-01 /Users/lab/Documents/surprise_project/surprise/stim/6_effect.mov 967 05-Apr-2018 10:31:40 -1.537396e+02 2.947907e+02 1 0
70ll04_F19 445 54 46 45 -45 right 1 5.000000e-01 /Users/lab/Documents/surprise_project/surprise/stim/6_noeffect.mov 815 05-Apr-2018 10:31:44 3.951286e+02 2.781999e+02 0 0
70ll04_F19 445 55 8 -45 -45 left 1 5.000000e-01 /Users/lab/Documents/surprise_project/surprise/stim/1_noeffect.mov 763 05-Apr-2018 10:31:47 2.228804e+02 4.330140e+02 1 0
70ll04_F19 445 56 34 45 -45 right 1 5.000000e-01 /Users/lab/Documents/surprise_project/surprise/stim/5_effect.mov 810 05-Apr-2018 10:32:04 -4.896485e+01 -1.943593e+02 1 1
70ll04_F19 445 57 17 45 45 right 1 5.000000e-01 /Users/lab/Documents/surprise_project/surprise/stim/3_effect.mov 849 05-Apr-2018 10:32:07 3.501709e+02 -1.158800e+02 1 0
70ll04_F19 445 58 53 45 45 right 1 5.000000e-01 /Users/lab/Documents/surprise_project/surprise/stim/7_noeffect.mov 599 05-Apr-2018 10:32:10 -2.366379e+02 -4.847554e+02 0 0
70ll04_F19 445 59 38 45 -45 right 1 5.000000e-01 /Users/lab/Documents/surprise_project/surprise/stim/5_noeffect.mov 649 05-Apr-2018 10:32:13 -2.142473e+02 -1.389081e+02 0 0
70ll04_F19 445 60 39 -45 45 left 1 5.000000e-01 /Users/lab/Documents/surprise_project/surprise/stim/5_noeffect.mov 1292 05-Apr-2018 10:32:30 -4.467737e+02 -4.598192e+02 0 1
70ll04_F19 445 61 14 45 -45 right 1 5.000000e-01 /Users/lab/Documents/surprise_project/surprise/stim/2_noeffect.mov 815 05-Apr-2018 10:32:33 7.801531e+01 4.723344e+02 0 0
70ll04_F19 445 62 21 45 45 right 1 5.000000e-01 /Users/lab/Documents/surprise_project/surprise/stim/3_noeffect.mov 594 05-Apr-2018 10:32:36 3.626228e+02 3.092295e+02 0 0
70ll04_F19 445 63 58 45 -45 right 1 5.000000e-01 /Users/lab/Documents/surprise_project/surprise/stim/8_effect.mov 999 05-Apr-2018 10:32:40 -4.355958e+02 -4.577745e+02 1 0
70ll04_F19 445 64 72 -45 -45 left 1 5.000000e-01 /Users/lab/Documents/surprise_project/surprise/stim/9_noeffect.mov 1477 05-Apr-2018 10:33:02 -4.734239e+02 -2.435393e+02 0 1
70ll04_F19 445 65 32 -45 -45 left 1 5.000000e-01 /Users/lab/Documents/surprise_project/surprise/stim/4_noeffect.mov 845 05-Apr-2018 10:33:06 -1.552779e+02 2.486544e+02 0 0
70ll04_F19 445 66 3 -45 45 left 1 5.000000e-01 /Users/lab/Documents/surprise_project/surprise/stim/1_effect.mov 796 05-Apr-2018 10:33:09 -2.357526e+02 2.639433e+02 1 0
70ll04_F19 445 67 27 -45 45 left 1 5.000000e-01 /Users/lab/Documents/surprise_project/surprise/stim/4_effect.mov 749 05-Apr-2018 10:33:12 -3.637239e+02 -4.174110e+02 1 0
70ll04_F19 445 68 12 -45 -45 left 1 5.000000e-01 /Users/lab/Documents/surprise_project/surprise/stim/2_effect.mov 1060 05-Apr-2018 10:33:38 8.170356e+01 4.959490e+02 1 1
70ll04_F19 445 69 68 -45 -45 left 1 5.000000e-01 /Users/lab/Documents/surprise_project/surprise/stim/9_effect.mov 528 05-Apr-2018 10:33:41 1.303716e+01 2.134971e+02 1 0
70ll04_F19 445 70 63 -45 45 left 1 5.000000e-01 /Users/lab/Documents/surprise_project/surprise/stim/8_noeffect.mov 746 05-Apr-2018 10:33:44 2.317754e+02 2.899576e+01 0 0
70ll04_F19 445 71 13 45 45 right 1 5.000000e-01 /Users/lab/Documents/surprise_project/surprise/stim/2_noeffect.mov 712 05-Apr-2018 10:33:47 2.410182e+02 2.259214e+02 0 0
70ll04_F19 445 72 66 45 -45 right 1 5.000000e-01 /Users/lab/Documents/surprise_project/surprise/stim/9_effect.mov 750 05-Apr-2018 10:33:50 -6.443005e+01 -1.194550e+02 1 0
