subject_name subjectNumber iTrial unshuffled_trial targetOrientation flankersOrientation response correct onscreen_stim_duration magicShows rt date time_of_day deltaX deltaY surpriseClip isClipTrial
67cs25_f19 338 1 5 45 45 NORESP 0 5.000000e-01 /Users/lab/Documents/surprise_project/surprise/stim/1_noeffect.mov 3012 28-Mar-2018 14:59:23 -4.555833e+02 4.064760e+02 1 1
67cs25_f19 338 2 51 -45 45 left 1 5.000000e-01 /Users/lab/Documents/surprise_project/surprise/stim/7_effect.mov 1763 28-Mar-2018 14:59:27 3.303652e+02 1.058463e+02 1 0
67cs25_f19 338 3 69 45 45 right 1 5.000000e-01 /Users/lab/Documents/surprise_project/surprise/stim/9_noeffect.mov 1278 28-Mar-2018 14:59:31 -2.817164e+01 -9.634057e+01 0 0
67cs25_f19 338 4 37 45 45 right 1 5.000000e-01 /Users/lab/Documents/surprise_project/surprise/stim/5_noeffect.mov 1028 28-Mar-2018 14:59:48 1.276545e+02 3.815563e+02 0 1
67cs25_f19 338 5 68 -45 -45 left 1 5.000000e-01 /Users/lab/Documents/surprise_project/surprise/stim/9_effect.mov 980 28-Mar-2018 14:59:51 -4.072923e+01 -2.698025e+02 1 0
67cs25_f19 338 6 26 45 -45 right 1 5.000000e-01 /Users/lab/Documents/surprise_project/surprise/stim/4_effect.mov 495 28-Mar-2018 14:59:54 1.906877e+02 -4.887894e+01 1 0
67cs25_f19 338 7 64 -45 -45 left 1 5.000000e-01 /Users/lab/Documents/surprise_project/surprise/stim/8_noeffect.mov 648 28-Mar-2018 14:59:57 -8.271644e+01 1.089004e+02 0 0
67cs25_f19 338 8 23 -45 45 left 1 5.000000e-01 /Users/lab/Documents/surprise_project/surprise/stim/3_noeffect.mov 1045 28-Mar-2018 15:00:16 -1.724862e+02 -3.767463e+02 0 1
67cs25_f19 338 9 39 -45 45 left 1 5.000000e-01 /Users/lab/Documents/surprise_project/surprise/stim/5_noeffect.mov 662 28-Mar-2018 15:00:19 4.231631e+02 2.595738e+02 0 0
67cs25_f19 338 10 31 -45 45 left 1 5.000000e-01 /Users/lab/Documents/surprise_project/surprise/stim/4_noeffect.mov 477 28-Mar-2018 15:00:22 -3.178872e+01 2.609327e+02 0 0
67cs25_f19 338 11 28 -45 -45 left 1 5.000000e-01 /Users/lab/Documents/surprise_project/surprise/stim/4_effect.mov 369 28-Mar-2018 15:00:24 -2.688269e+02 -3.327947e+01 1 0
67cs25_f19 338 12 47 -45 45 left 1 5.000000e-01 /Users/lab/Documents/surprise_project/surprise/stim/6_noeffect.mov 813 28-Mar-2018 15:00:39 4.382349e+02 -2.306054e+02 0 1
67cs25_f19 338 13 49 45 45 left 0 5.000000e-01 /Users/lab/Documents/surprise_project/surprise/stim/7_effect.mov 729 28-Mar-2018 15:00:42 3.885825e+02 -7.880207e+01 1 0
67cs25_f19 338 14 24 -45 -45 left 1 5.000000e-01 /Users/lab/Documents/surprise_project/surprise/stim/3_noeffect.mov 716 28-Mar-2018 15:00:45 2.895983e+01 -4.448213e+02 0 0
67cs25_f19 338 15 4 -45 -45 left 1 5.000000e-01 /Users/lab/Documents/surprise_project/surprise/stim/1_effect.mov 631 28-Mar-2018 15:00:48 -3.987835e+02 -4.387463e+02 1 0
67cs25_f19 338 16 14 45 -45 right 1 5.000000e-01 /Users/lab/Documents/surprise_project/surprise/stim/2_noeffect.mov 862 28-Mar-2018 15:01:13 -1.460958e+02 -1.150505e+02 0 1
67cs25_f19 338 17 32 -45 -45 left 1 5.000000e-01 /Users/lab/Documents/surprise_project/surprise/stim/4_noeffect.mov 582 28-Mar-2018 15:01:16 1.280624e+01 1.128153e+02 0 0
67cs25_f19 338 18 33 45 45 right 1 5.000000e-01 /Users/lab/Documents/surprise_project/surprise/stim/5_effect.mov 629 28-Mar-2018 15:01:19 -4.236266e+02 3.701223e+02 1 0
67cs25_f19 338 19 60 -45 -45 left 1 5.000000e-01 /Users/lab/Documents/surprise_project/surprise/stim/8_effect.mov 847 28-Mar-2018 15:01:22 -9.245098e+01 -1.759464e+02 1 0
67cs25_f19 338 20 66 45 -45 right 1 5.000000e-01 /Users/lab/Documents/surprise_project/surprise/stim/9_effect.mov 927 28-Mar-2018 15:01:44 -1.082998e+02 1.998101e+01 1 1
67cs25_f19 338 21 20 -45 -45 left 1 5.000000e-01 /Users/lab/Documents/surprise_project/surprise/stim/3_effect.mov 647 28-Mar-2018 15:01:47 -1.711303e+02 2.338389e+02 1 0
67cs25_f19 338 22 63 -45 45 left 1 5.000000e-01 /Users/lab/Documents/surprise_project/surprise/stim/8_noeffect.mov 515 28-Mar-2018 15:01:50 -4.011117e+00 4.471450e+02 0 0
67cs25_f19 338 23 10 45 -45 right 1 5.000000e-01 /Users/lab/Documents/surprise_project/surprise/stim/2_effect.mov 565 28-Mar-2018 15:01:53 -4.606024e+02 -2.201300e+02 1 0
67cs25_f19 338 24 57 45 45 right 1 5.000000e-01 /Users/lab/Documents/surprise_project/surprise/stim/8_effect.mov 743 28-Mar-2018 15:02:14 -1.121645e+02 7.478656e+00 1 1
67cs25_f19 338 25 19 -45 45 left 1 5.000000e-01 /Users/lab/Documents/surprise_project/surprise/stim/3_effect.mov 597 28-Mar-2018 15:02:17 2.897210e+02 1.083159e+01 1 0
67cs25_f19 338 26 34 45 -45 right 1 5.000000e-01 /Users/lab/Documents/surprise_project/surprise/stim/5_effect.mov 469 28-Mar-2018 15:02:20 3.595012e+02 -4.197656e+02 1 0
67cs25_f19 338 27 42 45 -45 right 1 5.000000e-01 /Users/lab/Documents/surprise_project/surprise/stim/6_effect.mov 598 28-Mar-2018 15:02:23 -2.735851e+02 -4.801693e+02 1 0
67cs25_f19 338 28 16 -45 -45 left 1 5.000000e-01 /Users/lab/Documents/surprise_project/surprise/stim/2_noeffect.mov 758 28-Mar-2018 15:02:48 -1.458437e+02 1.412668e+02 0 1
67cs25_f19 338 29 30 45 -45 right 1 5.000000e-01 /Users/lab/Documents/surprise_project/surprise/stim/4_noeffect.mov 565 28-Mar-2018 15:02:50 -4.848983e+02 3.170087e+02 0 0
67cs25_f19 338 30 3 -45 45 left 1 5.000000e-01 /Users/lab/Documents/surprise_project/surprise/stim/1_effect.mov 629 28-Mar-2018 15:02:53 -4.467504e+02 4.348925e+02 1 0
67cs25_f19 338 31 52 -45 -45 left 1 5.000000e-01 /Users/lab/Documents/surprise_project/surprise/stim/7_effect.mov 457 28-Mar-2018 15:02:56 -3.044108e+02 1.885210e+02 1 0
67cs25_f19 338 32 50 45 -45 right 1 5.000000e-01 /Users/lab/Documents/surprise_project/surprise/stim/7_effect.mov 877 28-Mar-2018 15:03:16 -4.861220e+02 4.865119e+02 1 1
67cs25_f19 338 33 1 45 45 right 1 5.000000e-01 /Users/lab/Documents/surprise_project/surprise/stim/1_effect.mov 405 28-Mar-2018 15:03:18 1.614814e+00 4.361505e+02 1 0
67cs25_f19 338 34 13 45 45 right 1 5.000000e-01 /Users/lab/Documents/surprise_project/surprise/stim/2_noeffect.mov 515 28-Mar-2018 15:03:21 3.114434e+02 -3.898899e+02 0 0
67cs25_f19 338 35 71 -45 45 left 1 5.000000e-01 /Users/lab/Documents/surprise_project/surprise/stim/9_noeffect.mov 580 28-Mar-2018 15:03:24 -1.932543e+02 8.829113e+01 0 0
67cs25_f19 338 36 53 45 45 right 1 5.000000e-01 /Users/lab/Documents/surprise_project/surprise/stim/7_noeffect.mov 601 28-Mar-2018 15:03:43 -5.649608e+01 4.257783e+01 0 1
67cs25_f19 338 37 62 45 -45 right 1 5.000000e-01 /Users/lab/Documents/surprise_project/surprise/stim/8_noeffect.mov 565 28-Mar-2018 15:03:46 2.839631e+02 -6.531996e-02 0 0
67cs25_f19 338 38 2 45 -45 right 1 5.000000e-01 /Users/lab/Documents/surprise_project/surprise/stim/1_effect.mov 515 28-Mar-2018 15:03:49 -2.168994e+02 2.714029e+02 1 0
67cs25_f19 338 39 21 45 45 right 1 5.000000e-01 /Users/lab/Documents/surprise_project/surprise/stim/3_noeffect.mov 351 28-Mar-2018 15:03:52 2.540309e+02 8.079573e+01 0 0
67cs25_f19 338 40 29 45 45 right 1 5.000000e-01 /Users/lab/Documents/surprise_project/surprise/stim/4_noeffect.mov 489 28-Mar-2018 15:04:08 2.792366e+02 7.830860e+01 0 1
67cs25_f19 338 41 36 -45 45 left 1 5.000000e-01 /Users/lab/Documents/surprise_project/surprise/stim/5_effect.mov 582 28-Mar-2018 15:04:11 -5.748232e+01 -1.072923e+02 1 0
67cs25_f19 338 42 22 45 -45 right 1 5.000000e-01 /Users/lab/Documents/surprise_project/surprise/stim/3_noeffect.mov 500 28-Mar-2018 15:04:14 1.411332e+02 1.270443e+02 0 0
67cs25_f19 338 43 43 -45 45 left 1 5.000000e-01 /Users/lab/Documents/surprise_project/surprise/stim/6_effect.mov 472 28-Mar-2018 15:04:17 1.129625e+02 -2.512254e+01 1 0
67cs25_f19 338 44 25 45 45 right 1 5.000000e-01 /Users/lab/Documents/surprise_project/surprise/stim/4_effect.mov 711 28-Mar-2018 15:04:34 -1.714096e+02 3.003720e+00 1 1
67cs25_f19 338 45 11 -45 45 left 1 5.000000e-01 /Users/lab/Documents/surprise_project/surprise/stim/2_effect.mov 447 28-Mar-2018 15:04:37 -2.949885e+02 9.309095e+00 1 0
67cs25_f19 338 46 54 45 -45 right 1 5.000000e-01 /Users/lab/Documents/surprise_project/surprise/stim/7_noeffect.mov 425 28-Mar-2018 15:04:40 6.415579e+00 -2.029184e+02 0 0
67cs25_f19 338 47 38 45 -45 right 1 5.000000e-01 /Users/lab/Documents/surprise_project/surprise/stim/5_noeffect.mov 468 28-Mar-2018 15:04:42 3.250488e+02 2.511306e+02 0 0
67cs25_f19 338 48 7 -45 45 left 1 5.000000e-01 /Users/lab/Documents/surprise_project/surprise/stim/1_noeffect.mov 645 28-Mar-2018 15:05:07 3.948605e+02 -5.131599e+01 1 1
67cs25_f19 338 49 55 -45 45 left 1 5.000000e-01 /Users/lab/Documents/surprise_project/surprise/stim/7_noeffect.mov 616 28-Mar-2018 15:05:10 -3.124267e+02 4.659705e+02 0 0
67cs25_f19 338 50 72 -45 -45 left 1 5.000000e-01 /Users/lab/Documents/surprise_project/surprise/stim/9_noeffect.mov 630 28-Mar-2018 15:05:13 4.726401e+02 2.622459e+02 0 0
67cs25_f19 338 51 9 45 45 right 1 5.000000e-01 /Users/lab/Documents/surprise_project/surprise/stim/2_effect.mov 443 28-Mar-2018 15:05:16 2.847469e+02 3.359692e+02 1 0
67cs25_f19 338 52 27 -45 45 left 1 5.000000e-01 /Users/lab/Documents/surprise_project/surprise/stim/4_effect.mov 1018 28-Mar-2018 15:05:33 -4.266129e+02 -2.204694e+02 1 1
67cs25_f19 338 53 17 45 45 right 1 5.000000e-01 /Users/lab/Documents/surprise_project/surprise/stim/3_effect.mov 457 28-Mar-2018 15:05:36 3.813230e+02 -3.247849e+02 1 0
67cs25_f19 338 54 36 -45 -45 left 1 5.000000e-01 /Users/lab/Documents/surprise_project/surprise/stim/5_effect.mov 647 28-Mar-2018 15:05:39 3.747687e+02 -4.354503e+02 1 0
67cs25_f19 338 55 58 45 -45 right 1 5.000000e-01 /Users/lab/Documents/surprise_project/surprise/stim/8_effect.mov 548 28-Mar-2018 15:05:42 1.660473e+02 3.245793e+02 1 0
67cs25_f19 338 56 65 45 45 right 1 5.000000e-01 /Users/lab/Documents/surprise_project/surprise/stim/9_effect.mov 644 28-Mar-2018 15:06:04 2.994872e+02 -4.477383e+02 1 1
67cs25_f19 338 57 44 -45 -45 left 1 5.000000e-01 /Users/lab/Documents/surprise_project/surprise/stim/6_effect.mov 562 28-Mar-2018 15:06:07 -1.195688e+02 -3.127176e+02 1 0
67cs25_f19 338 58 8 -45 -45 left 1 5.000000e-01 /Users/lab/Documents/surprise_project/surprise/stim/1_noeffect.mov 414 28-Mar-2018 15:06:09 -7.056397e+01 -2.091720e+02 1 0
67cs25_f19 338 59 67 -45 45 left 1 5.000000e-01 /Users/lab/Documents/surprise_project/surprise/stim/9_effect.mov 612 28-Mar-2018 15:06:12 1.326117e+01 -1.879933e+02 1 0
67cs25_f19 338 60 18 45 -45 right 1 5.000000e-01 /Users/lab/Documents/surprise_project/surprise/stim/3_effect.mov 778 28-Mar-2018 15:06:31 2.829249e+02 1.085225e+02 1 1
67cs25_f19 338 61 56 -45 -45 left 1 5.000000e-01 /Users/lab/Documents/surprise_project/surprise/stim/7_noeffect.mov 531 28-Mar-2018 15:06:34 -4.192666e+02 -3.271385e+02 0 0
67cs25_f19 338 62 45 45 45 right 1 5.000000e-01 /Users/lab/Documents/surprise_project/surprise/stim/6_noeffect.mov 370 28-Mar-2018 15:06:36 -4.312478e+01 1.427199e+02 0 0
67cs25_f19 338 63 40 -45 -45 left 1 5.000000e-01 /Users/lab/Documents/surprise_project/surprise/stim/5_noeffect.mov 530 28-Mar-2018 15:06:39 3.464660e+02 7.937165e+01 0 0
67cs25_f19 338 64 6 45 -45 right 1 5.000000e-01 /Users/lab/Documents/surprise_project/surprise/stim/1_noeffect.mov 645 28-Mar-2018 15:07:04 1.818672e+02 4.163913e+02 1 1
67cs25_f19 338 65 48 -45 -45 left 1 5.000000e-01 /Users/lab/Documents/surprise_project/surprise/stim/6_noeffect.mov 416 28-Mar-2018 15:07:07 -3.249800e+02 -2.328418e+02 0 0
67cs25_f19 338 66 59 -45 45 left 1 5.000000e-01 /Users/lab/Documents/surprise_project/surprise/stim/8_effect.mov 863 28-Mar-2018 15:07:10 -4.207937e+02 6.194928e+01 1 0
67cs25_f19 338 67 15 -45 45 left 1 5.000000e-01 /Users/lab/Documents/surprise_project/surprise/stim/2_noeffect.mov 564 28-Mar-2018 15:07:13 4.564417e+02 -2.109713e+02 0 0
67cs25_f19 338 68 12 -45 -45 left 1 5.000000e-01 /Users/lab/Documents/surprise_project/surprise/stim/2_effect.mov 695 28-Mar-2018 15:07:38 -2.126461e+02 -4.102879e+02 1 1
67cs25_f19 338 69 70 45 -45 right 1 5.000000e-01 /Users/lab/Documents/surprise_project/surprise/stim/9_noeffect.mov 664 28-Mar-2018 15:07:41 1.762406e+02 4.542653e+02 0 0
67cs25_f19 338 70 61 45 45 right 1 5.000000e-01 /Users/lab/Documents/surprise_project/surprise/stim/8_noeffect.mov 371 28-Mar-2018 15:07:44 3.939931e+02 -2.693702e+02 0 0
67cs25_f19 338 71 41 45 45 right 1 5.000000e-01 /Users/lab/Documents/surprise_project/surprise/stim/6_effect.mov 494 28-Mar-2018 15:07:47 -4.458120e+02 3.053802e+02 1 0
67cs25_f19 338 72 46 45 -45 right 1 5.000000e-01 /Users/lab/Documents/surprise_project/surprise/stim/6_noeffect.mov 1250 28-Mar-2018 15:07:50 3.456835e+02 -3.808178e+02 0 0
