subject_name subjectNumber iTrial unshuffled_trial targetOrientation flankersOrientation response correct onscreen_stim_duration magicShows rt date time_of_day deltaX deltaY surpriseClip isClipTrial
68fs06_f20 97 1 31 -45 45 left 1 5.000000e-01 /Users/lab/Documents/surprise_project/surprise/stim/4_noeffect.mov 995 19-Mar-2018 15:58:06 -1.018845e+02 1.015257e+02 0 1
68fs06_f20 97 2 15 -45 45 left 1 5.000000e-01 /Users/lab/Documents/surprise_project/surprise/stim/2_noeffect.mov 832 19-Mar-2018 15:58:09 -1.340771e+02 -3.433279e+02 0 0
68fs06_f20 97 3 17 45 45 right 1 5.000000e-01 /Users/lab/Documents/surprise_project/surprise/stim/3_effect.mov 632 19-Mar-2018 15:58:12 2.979305e+02 4.030076e+02 1 0
68fs06_f20 97 4 18 45 -45 right 1 5.000000e-01 /Users/lab/Documents/surprise_project/surprise/stim/3_effect.mov 796 19-Mar-2018 15:58:31 -4.739838e+02 -4.405249e+02 1 1
68fs06_f20 97 5 11 -45 45 left 1 5.000000e-01 /Users/lab/Documents/surprise_project/surprise/stim/2_effect.mov 582 19-Mar-2018 15:58:34 -4.297642e+02 -1.736202e+02 1 0
68fs06_f20 97 6 34 45 -45 NORESP 0 5.000000e-01 /Users/lab/Documents/surprise_project/surprise/stim/5_effect.mov 2999 19-Mar-2018 15:58:39 9.949570e+01 2.422797e+02 1 0
68fs06_f20 97 7 39 -45 45 right 0 5.000000e-01 /Users/lab/Documents/surprise_project/surprise/stim/5_noeffect.mov 59 19-Mar-2018 15:58:41 2.572759e+02 1.661214e+02 0 0
68fs06_f20 97 8 23 -45 45 left 1 5.000000e-01 /Users/lab/Documents/surprise_project/surprise/stim/3_noeffect.mov 662 19-Mar-2018 15:58:59 4.502554e+02 -1.417104e+02 0 1
68fs06_f20 97 9 25 45 45 right 1 5.000000e-01 /Users/lab/Documents/surprise_project/surprise/stim/4_effect.mov 429 19-Mar-2018 15:59:02 2.305152e+02 -3.593548e+02 1 0
68fs06_f20 97 10 64 -45 -45 left 1 5.000000e-01 /Users/lab/Documents/surprise_project/surprise/stim/8_noeffect.mov 948 19-Mar-2018 15:59:06 1.417595e+02 -1.172164e+02 0 0
68fs06_f20 97 11 62 45 -45 right 1 5.000000e-01 /Users/lab/Documents/surprise_project/surprise/stim/8_noeffect.mov 665 19-Mar-2018 15:59:09 2.369942e+02 1.909501e+02 0 0
68fs06_f20 97 12 16 -45 -45 left 1 5.000000e-01 /Users/lab/Documents/surprise_project/surprise/stim/2_noeffect.mov 664 19-Mar-2018 15:59:33 4.766979e+02 1.284921e+02 0 1
68fs06_f20 97 13 57 45 45 right 1 5.000000e-01 /Users/lab/Documents/surprise_project/surprise/stim/8_effect.mov 516 19-Mar-2018 15:59:36 -1.007193e+02 -1.475149e+02 1 0
68fs06_f20 97 14 28 -45 -45 left 1 5.000000e-01 /Users/lab/Documents/surprise_project/surprise/stim/4_effect.mov 648 19-Mar-2018 15:59:39 4.331607e+02 2.425218e+02 1 0
68fs06_f20 97 15 20 -45 -45 left 1 5.000000e-01 /Users/lab/Documents/surprise_project/surprise/stim/3_effect.mov 565 19-Mar-2018 15:59:42 1.261589e+02 3.109750e+02 1 0
68fs06_f20 97 16 66 45 -45 right 1 5.000000e-01 /Users/lab/Documents/surprise_project/surprise/stim/9_effect.mov 1396 19-Mar-2018 16:00:05 3.956662e+01 1.033756e+02 1 1
68fs06_f20 97 17 46 45 -45 right 1 5.000000e-01 /Users/lab/Documents/surprise_project/surprise/stim/6_noeffect.mov 632 19-Mar-2018 16:00:07 2.828276e+02 2.749595e+01 0 0
68fs06_f20 97 18 7 -45 45 left 1 5.000000e-01 /Users/lab/Documents/surprise_project/surprise/stim/1_noeffect.mov 550 19-Mar-2018 16:00:10 -2.481017e+00 2.336729e+02 1 0
68fs06_f20 97 19 53 45 45 right 1 5.000000e-01 /Users/lab/Documents/surprise_project/surprise/stim/7_noeffect.mov 581 19-Mar-2018 16:00:13 -4.971575e+02 -2.169903e+01 0 0
68fs06_f20 97 20 2 45 -45 right 1 5.000000e-01 /Users/lab/Documents/surprise_project/surprise/stim/1_effect.mov 714 19-Mar-2018 16:00:38 -1.773721e+02 -4.532542e+02 1 1
68fs06_f20 97 21 37 45 45 right 1 5.000000e-01 /Users/lab/Documents/surprise_project/surprise/stim/5_noeffect.mov 458 19-Mar-2018 16:00:41 4.389856e+02 3.818875e+02 0 0
68fs06_f20 97 22 41 45 45 right 1 5.000000e-01 /Users/lab/Documents/surprise_project/surprise/stim/6_effect.mov 531 19-Mar-2018 16:00:44 -7.017176e+01 -4.203575e+02 1 0
68fs06_f20 97 23 68 -45 -45 left 1 5.000000e-01 /Users/lab/Documents/surprise_project/surprise/stim/9_effect.mov 531 19-Mar-2018 16:00:47 5.649244e-01 2.388428e+02 1 0
68fs06_f20 97 24 22 45 -45 right 1 5.000000e-01 /Users/lab/Documents/surprise_project/surprise/stim/3_noeffect.mov 745 19-Mar-2018 16:01:05 3.428160e+02 -2.743236e+02 0 1
68fs06_f20 97 25 32 -45 -45 left 1 5.000000e-01 /Users/lab/Documents/surprise_project/surprise/stim/4_noeffect.mov 631 19-Mar-2018 16:01:08 -1.422059e+02 1.798710e+02 0 0
68fs06_f20 97 26 47 -45 45 left 1 5.000000e-01 /Users/lab/Documents/surprise_project/surprise/stim/6_noeffect.mov 683 19-Mar-2018 16:01:11 -4.258955e+01 1.319279e+01 0 0
68fs06_f20 97 27 24 -45 -45 left 1 5.000000e-01 /Users/lab/Documents/surprise_project/surprise/stim/3_noeffect.mov 698 19-Mar-2018 16:01:14 2.300829e+02 -4.946729e+02 0 0
68fs06_f20 97 28 48 -45 -45 left 1 5.000000e-01 /Users/lab/Documents/surprise_project/surprise/stim/6_noeffect.mov 646 19-Mar-2018 16:01:29 -6.215584e+01 -5.572401e+01 0 1
68fs06_f20 97 29 8 -45 -45 left 1 5.000000e-01 /Users/lab/Documents/surprise_project/surprise/stim/1_noeffect.mov 549 19-Mar-2018 16:01:32 2.213245e+01 -2.598162e+02 1 0
68fs06_f20 97 30 58 45 -45 right 1 5.000000e-01 /Users/lab/Documents/surprise_project/surprise/stim/8_effect.mov 565 19-Mar-2018 16:01:35 -1.712673e+02 -9.650365e+01 1 0
68fs06_f20 97 31 44 -45 -45 left 1 5.000000e-01 /Users/lab/Documents/surprise_project/surprise/stim/6_effect.mov 516 19-Mar-2018 16:01:38 6.556345e+01 -1.544497e+02 1 0
68fs06_f20 97 32 14 45 -45 right 1 5.000000e-01 /Users/lab/Documents/surprise_project/surprise/stim/2_noeffect.mov 729 19-Mar-2018 16:02:03 -1.454594e+02 3.793791e+02 0 1
68fs06_f20 97 33 55 -45 45 left 1 5.000000e-01 /Users/lab/Documents/surprise_project/surprise/stim/7_noeffect.mov 649 19-Mar-2018 16:02:06 -2.150271e+02 1.337771e+01 0 0
68fs06_f20 97 34 9 45 45 right 1 5.000000e-01 /Users/lab/Documents/surprise_project/surprise/stim/2_effect.mov 565 19-Mar-2018 16:02:09 -1.971009e+02 4.890406e+02 1 0
68fs06_f20 97 35 51 -45 45 left 1 5.000000e-01 /Users/lab/Documents/surprise_project/surprise/stim/7_effect.mov 649 19-Mar-2018 16:02:12 3.242546e+02 2.226552e+02 1 0
68fs06_f20 97 36 59 -45 45 left 1 5.000000e-01 /Users/lab/Documents/surprise_project/surprise/stim/8_effect.mov 746 19-Mar-2018 16:02:33 -3.360854e+02 2.740179e+02 1 1
68fs06_f20 97 37 50 45 -45 right 1 5.000000e-01 /Users/lab/Documents/surprise_project/surprise/stim/7_effect.mov 616 19-Mar-2018 16:02:36 2.611260e+02 -1.980215e+01 1 0
68fs06_f20 97 38 4 -45 -45 left 1 5.000000e-01 /Users/lab/Documents/surprise_project/surprise/stim/1_effect.mov 548 19-Mar-2018 16:02:39 -3.136352e+02 -2.433191e+02 1 0
68fs06_f20 97 39 5 45 45 right 1 5.000000e-01 /Users/lab/Documents/surprise_project/surprise/stim/1_noeffect.mov 429 19-Mar-2018 16:02:42 3.605421e+02 -2.369402e+02 1 0
68fs06_f20 97 40 30 45 -45 right 1 5.000000e-01 /Users/lab/Documents/surprise_project/surprise/stim/4_noeffect.mov 631 19-Mar-2018 16:02:59 2.853323e+02 3.383129e+02 0 1
68fs06_f20 97 41 40 -45 -45 left 1 5.000000e-01 /Users/lab/Documents/surprise_project/surprise/stim/5_noeffect.mov 549 19-Mar-2018 16:03:02 1.026671e+02 4.248779e+02 0 0
68fs06_f20 97 42 33 45 45 right 1 5.000000e-01 /Users/lab/Documents/surprise_project/surprise/stim/5_effect.mov 515 19-Mar-2018 16:03:05 1.064272e+02 -3.920140e+02 1 0
68fs06_f20 97 43 60 -45 -45 left 1 5.000000e-01 /Users/lab/Documents/surprise_project/surprise/stim/8_effect.mov 461 19-Mar-2018 16:03:07 4.439268e+02 -4.914105e+02 1 0
68fs06_f20 97 44 72 -45 -45 left 1 5.000000e-01 /Users/lab/Documents/surprise_project/surprise/stim/9_noeffect.mov 613 19-Mar-2018 16:03:29 4.399149e+02 1.835739e+02 0 1
68fs06_f20 97 45 71 -45 45 left 1 5.000000e-01 /Users/lab/Documents/surprise_project/surprise/stim/9_noeffect.mov 582 19-Mar-2018 16:03:32 -3.602068e+02 -4.738503e+02 0 0
68fs06_f20 97 46 54 45 -45 right 1 5.000000e-01 /Users/lab/Documents/surprise_project/surprise/stim/7_noeffect.mov 632 19-Mar-2018 16:03:35 1.448707e+02 3.608857e+02 0 0
68fs06_f20 97 47 36 -45 45 left 1 5.000000e-01 /Users/lab/Documents/surprise_project/surprise/stim/5_effect.mov 532 19-Mar-2018 16:03:38 -4.366539e+02 -1.742478e+02 1 0
68fs06_f20 97 48 21 45 45 right 1 5.000000e-01 /Users/lab/Documents/surprise_project/surprise/stim/3_noeffect.mov 763 19-Mar-2018 16:03:56 -3.768942e+01 -1.445170e+02 0 1
68fs06_f20 97 49 3 -45 45 left 1 5.000000e-01 /Users/lab/Documents/surprise_project/surprise/stim/1_effect.mov 564 19-Mar-2018 16:03:59 3.832674e+02 3.646935e+02 1 0
68fs06_f20 97 50 19 -45 45 left 1 5.000000e-01 /Users/lab/Documents/surprise_project/surprise/stim/3_effect.mov 566 19-Mar-2018 16:04:02 2.575146e+01 1.755169e+02 1 0
68fs06_f20 97 51 26 45 -45 right 1 5.000000e-01 /Users/lab/Documents/surprise_project/surprise/stim/4_effect.mov 451 19-Mar-2018 16:04:05 2.056168e+02 1.150974e+02 1 0
68fs06_f20 97 52 29 45 45 right 1 5.000000e-01 /Users/lab/Documents/surprise_project/surprise/stim/4_noeffect.mov 1146 19-Mar-2018 16:04:23 -7.243111e+01 -2.559728e+02 0 1
68fs06_f20 97 53 10 45 -45 left 0 5.000000e-01 /Users/lab/Documents/surprise_project/surprise/stim/2_effect.mov 517 19-Mar-2018 16:04:26 4.346009e+02 1.267212e+02 1 0
68fs06_f20 97 54 70 45 -45 right 1 5.000000e-01 /Users/lab/Documents/surprise_project/surprise/stim/9_noeffect.mov 491 19-Mar-2018 16:04:29 -1.174313e+02 -1.269306e+02 0 0
68fs06_f20 97 55 49 45 45 right 1 5.000000e-01 /Users/lab/Documents/surprise_project/surprise/stim/7_effect.mov 582 19-Mar-2018 16:04:32 -2.969194e+02 5.374867e+01 1 0
68fs06_f20 97 56 65 45 45 right 1 5.000000e-01 /Users/lab/Documents/surprise_project/surprise/stim/9_effect.mov 679 19-Mar-2018 16:04:54 2.927859e+02 3.433596e+02 1 1
68fs06_f20 97 57 6 45 -45 right 1 5.000000e-01 /Users/lab/Documents/surprise_project/surprise/stim/1_noeffect.mov 599 19-Mar-2018 16:04:57 2.361803e+02 -2.645141e+02 1 0
68fs06_f20 97 58 61 45 45 right 1 5.000000e-01 /Users/lab/Documents/surprise_project/surprise/stim/8_noeffect.mov 495 19-Mar-2018 16:04:59 7.598165e+01 1.984226e+02 0 0
68fs06_f20 97 59 69 45 45 right 1 5.000000e-01 /Users/lab/Documents/surprise_project/surprise/stim/9_noeffect.mov 466 19-Mar-2018 16:05:02 9.107118e+01 -4.335801e+02 0 0
68fs06_f20 97 60 45 45 45 right 1 5.000000e-01 /Users/lab/Documents/surprise_project/surprise/stim/6_noeffect.mov 680 19-Mar-2018 16:05:17 2.902767e+02 -4.561234e+01 0 1
68fs06_f20 97 61 43 -45 45 left 1 5.000000e-01 /Users/lab/Documents/surprise_project/surprise/stim/6_effect.mov 596 19-Mar-2018 16:05:20 4.305511e+02 -1.443284e+01 1 0
68fs06_f20 97 62 38 45 -45 right 1 5.000000e-01 /Users/lab/Documents/surprise_project/surprise/stim/5_noeffect.mov 599 19-Mar-2018 16:05:23 -1.973142e+02 3.006628e+02 0 0
68fs06_f20 97 63 63 -45 45 left 1 5.000000e-01 /Users/lab/Documents/surprise_project/surprise/stim/8_noeffect.mov 698 19-Mar-2018 16:05:26 -4.013702e+02 -2.116922e+02 0 0
68fs06_f20 97 64 67 -45 45 left 1 5.000000e-01 /Users/lab/Documents/surprise_project/surprise/stim/9_effect.mov 746 19-Mar-2018 16:05:48 -3.035958e+02 -4.881719e+02 1 1
68fs06_f20 97 65 42 45 -45 right 1 5.000000e-01 /Users/lab/Documents/surprise_project/surprise/stim/6_effect.mov 482 19-Mar-2018 16:05:51 2.369488e+01 6.127506e-01 1 0
68fs06_f20 97 66 56 -45 -45 left 1 5.000000e-01 /Users/lab/Documents/surprise_project/surprise/stim/7_noeffect.mov 630 19-Mar-2018 16:05:54 1.996680e+02 2.797209e+02 0 0
68fs06_f20 97 67 36 -45 -45 left 1 5.000000e-01 /Users/lab/Documents/surprise_project/surprise/stim/5_effect.mov 516 19-Mar-2018 16:05:57 4.392752e+02 -4.386617e+02 1 0
68fs06_f20 97 68 12 -45 -45 left 1 5.000000e-01 /Users/lab/Documents/surprise_project/surprise/stim/2_effect.mov 800 19-Mar-2018 16:06:22 4.551936e+02 1.830385e+02 1 1
68fs06_f20 97 69 52 -45 -45 left 1 5.000000e-01 /Users/lab/Documents/surprise_project/surprise/stim/7_effect.mov 631 19-Mar-2018 16:06:25 -3.497958e+02 4.657235e+02 1 0
68fs06_f20 97 70 27 -45 45 left 1 5.000000e-01 /Users/lab/Documents/surprise_project/surprise/stim/4_effect.mov 582 19-Mar-2018 16:06:28 -5.281393e+01 -4.100658e+02 1 0
68fs06_f20 97 71 1 45 45 right 1 5.000000e-01 /Users/lab/Documents/surprise_project/surprise/stim/1_effect.mov 476 19-Mar-2018 16:06:31 1.683719e+02 -4.971548e+02 1 0
68fs06_f20 97 72 13 45 45 right 1 5.000000e-01 /Users/lab/Documents/surprise_project/surprise/stim/2_noeffect.mov 564 19-Mar-2018 16:06:34 3.241846e+02 -3.956055e+02 0 0
