subject_name subjectNumber iTrial unshuffled_trial targetOrientation flankersOrientation response correct onscreen_stim_duration magicShows rt date time_of_day deltaX deltaY surpriseClip isClipTrial
63em04_f21 479 1 61 45 45 right 1 5.000000e-01 /Users/lab/Documents/surprise_project/surprise/stim/8_noeffect.mov 1444 06-Apr-2018 13:58:00 3.997348e+02 -4.132063e+02 0 1
63em04_f21 479 2 34 45 -45 left 0 5.000000e-01 /Users/lab/Documents/surprise_project/surprise/stim/5_effect.mov 733 06-Apr-2018 13:58:04 -2.925833e+02 -2.149564e+02 1 0
63em04_f21 479 3 49 45 45 right 1 5.000000e-01 /Users/lab/Documents/surprise_project/surprise/stim/7_effect.mov 946 06-Apr-2018 13:58:07 -4.638045e+02 -1.029303e+02 1 0
63em04_f21 479 4 28 -45 -45 left 1 5.000000e-01 /Users/lab/Documents/surprise_project/surprise/stim/4_effect.mov 1444 06-Apr-2018 13:58:25 -1.339592e+02 -2.864531e+02 1 1
63em04_f21 479 5 51 -45 45 NORESP 0 5.000000e-01 /Users/lab/Documents/surprise_project/surprise/stim/7_effect.mov 3000 06-Apr-2018 13:58:30 3.340152e+02 -3.496665e+02 1 0
63em04_f21 479 6 46 45 -45 right 1 5.000000e-01 /Users/lab/Documents/surprise_project/surprise/stim/6_noeffect.mov 1332 06-Apr-2018 13:58:34 -3.463843e+02 2.354846e+02 0 0
63em04_f21 479 7 36 -45 45 left 1 5.000000e-01 /Users/lab/Documents/surprise_project/surprise/stim/5_effect.mov 763 06-Apr-2018 13:58:37 2.937416e+02 -9.210323e+01 1 0
63em04_f21 479 8 70 45 -45 right 1 5.000000e-01 /Users/lab/Documents/surprise_project/surprise/stim/9_noeffect.mov 1317 06-Apr-2018 13:58:59 -9.565192e+01 -2.115322e+02 0 1
63em04_f21 479 9 42 45 -45 right 1 5.000000e-01 /Users/lab/Documents/surprise_project/surprise/stim/6_effect.mov 832 06-Apr-2018 13:59:02 -2.134996e+02 3.724677e+02 1 0
63em04_f21 479 10 57 45 45 left 0 5.000000e-01 /Users/lab/Documents/surprise_project/surprise/stim/8_effect.mov 612 06-Apr-2018 13:59:05 4.777377e+01 -1.731983e+02 1 0
63em04_f21 479 11 14 45 -45 right 1 5.000000e-01 /Users/lab/Documents/surprise_project/surprise/stim/2_noeffect.mov 1233 06-Apr-2018 13:59:09 -4.519503e+02 4.091749e+02 0 0
63em04_f21 479 12 67 -45 45 left 1 5.000000e-01 /Users/lab/Documents/surprise_project/surprise/stim/9_effect.mov 1747 06-Apr-2018 13:59:32 1.116557e+02 3.359024e+02 1 1
63em04_f21 479 13 7 -45 45 left 1 5.000000e-01 /Users/lab/Documents/surprise_project/surprise/stim/1_noeffect.mov 845 06-Apr-2018 13:59:35 3.190714e+02 -4.924878e+02 1 0
63em04_f21 479 14 31 -45 45 left 1 5.000000e-01 /Users/lab/Documents/surprise_project/surprise/stim/4_noeffect.mov 665 06-Apr-2018 13:59:38 -2.043352e+02 -6.501455e+01 0 0
63em04_f21 479 15 56 -45 -45 left 1 5.000000e-01 /Users/lab/Documents/surprise_project/surprise/stim/7_noeffect.mov 846 06-Apr-2018 13:59:41 -1.696728e+02 4.070419e+02 0 0
63em04_f21 479 16 6 45 -45 right 1 5.000000e-01 /Users/lab/Documents/surprise_project/surprise/stim/1_noeffect.mov 1629 06-Apr-2018 14:00:07 4.360790e+02 -1.960681e+02 1 1
63em04_f21 479 17 16 -45 -45 left 1 5.000000e-01 /Users/lab/Documents/surprise_project/surprise/stim/2_noeffect.mov 1213 06-Apr-2018 14:00:11 4.311776e+02 2.351538e+02 0 0
63em04_f21 479 18 44 -45 -45 left 1 5.000000e-01 /Users/lab/Documents/surprise_project/surprise/stim/6_effect.mov 765 06-Apr-2018 14:00:14 -1.654549e+02 -1.812371e+02 1 0
63em04_f21 479 19 1 45 45 right 1 5.000000e-01 /Users/lab/Documents/surprise_project/surprise/stim/1_effect.mov 881 06-Apr-2018 14:00:17 4.062834e+02 6.861177e+01 1 0
63em04_f21 479 20 26 45 -45 right 1 5.000000e-01 /Users/lab/Documents/surprise_project/surprise/stim/4_effect.mov 1644 06-Apr-2018 14:00:35 9.691001e+01 4.147327e+02 1 1
63em04_f21 479 21 22 45 -45 right 1 5.000000e-01 /Users/lab/Documents/surprise_project/surprise/stim/3_noeffect.mov 1366 06-Apr-2018 14:00:39 4.748766e+02 -3.005011e+02 0 0
63em04_f21 479 22 64 -45 -45 left 1 5.000000e-01 /Users/lab/Documents/surprise_project/surprise/stim/8_noeffect.mov 1830 06-Apr-2018 14:00:43 -4.151782e+02 9.932654e+00 0 0
63em04_f21 479 23 54 45 -45 right 1 5.000000e-01 /Users/lab/Documents/surprise_project/surprise/stim/7_noeffect.mov 1296 06-Apr-2018 14:00:46 5.913212e+01 1.992299e+02 0 0
63em04_f21 479 24 36 -45 -45 right 0 5.000000e-01 /Users/lab/Documents/surprise_project/surprise/stim/5_effect.mov 2078 06-Apr-2018 14:01:05 -4.746595e+02 -2.333167e+02 1 1
63em04_f21 479 25 53 45 45 right 1 5.000000e-01 /Users/lab/Documents/surprise_project/surprise/stim/7_noeffect.mov 1712 06-Apr-2018 14:01:09 4.775614e+01 -3.645015e+02 0 0
63em04_f21 479 26 71 -45 45 left 1 5.000000e-01 /Users/lab/Documents/surprise_project/surprise/stim/9_noeffect.mov 1546 06-Apr-2018 14:01:12 3.226745e+02 2.063288e+02 0 0
63em04_f21 479 27 37 45 45 right 1 5.000000e-01 /Users/lab/Documents/surprise_project/surprise/stim/5_noeffect.mov 1416 06-Apr-2018 14:01:16 1.958467e+02 2.980305e+02 0 0
63em04_f21 479 28 66 45 -45 right 1 5.000000e-01 /Users/lab/Documents/surprise_project/surprise/stim/9_effect.mov 1728 06-Apr-2018 14:01:39 4.793904e+02 1.138868e+02 1 1
63em04_f21 479 29 13 45 45 right 1 5.000000e-01 /Users/lab/Documents/surprise_project/surprise/stim/2_noeffect.mov 1381 06-Apr-2018 14:01:43 -9.321264e+01 -3.763648e+02 0 0
63em04_f21 479 30 9 45 45 right 1 5.000000e-01 /Users/lab/Documents/surprise_project/surprise/stim/2_effect.mov 798 06-Apr-2018 14:01:46 2.385497e+02 4.465687e+02 1 0
63em04_f21 479 31 15 -45 45 left 1 5.000000e-01 /Users/lab/Documents/surprise_project/surprise/stim/2_noeffect.mov 1028 06-Apr-2018 14:01:49 -3.824875e+02 1.551112e+02 0 0
63em04_f21 479 32 55 -45 45 left 1 5.000000e-01 /Users/lab/Documents/surprise_project/surprise/stim/7_noeffect.mov 1417 06-Apr-2018 14:02:09 -3.017597e+01 -4.633456e+02 0 1
63em04_f21 479 33 38 45 -45 right 1 5.000000e-01 /Users/lab/Documents/surprise_project/surprise/stim/5_noeffect.mov 1581 06-Apr-2018 14:02:13 -3.813511e+02 -6.547865e+01 0 0
63em04_f21 479 34 48 -45 -45 left 1 5.000000e-01 /Users/lab/Documents/surprise_project/surprise/stim/6_noeffect.mov 1581 06-Apr-2018 14:02:16 -4.464775e+02 3.145226e+02 0 0
63em04_f21 479 35 58 45 -45 right 1 5.000000e-01 /Users/lab/Documents/surprise_project/surprise/stim/8_effect.mov 1262 06-Apr-2018 14:02:20 -3.975513e+02 2.105012e+02 1 0
63em04_f21 479 36 68 -45 -45 left 1 5.000000e-01 /Users/lab/Documents/surprise_project/surprise/stim/9_effect.mov 2028 06-Apr-2018 14:02:43 4.587555e+01 4.044970e+02 1 1
63em04_f21 479 37 3 -45 45 NORESP 0 5.000000e-01 /Users/lab/Documents/surprise_project/surprise/stim/1_effect.mov 3000 06-Apr-2018 14:02:48 -8.803645e+00 1.213261e+02 1 0
63em04_f21 479 38 20 -45 -45 left 1 5.000000e-01 /Users/lab/Documents/surprise_project/surprise/stim/3_effect.mov 1518 06-Apr-2018 14:02:52 -3.980291e+02 -1.508190e+02 1 0
63em04_f21 479 39 62 45 -45 right 1 5.000000e-01 /Users/lab/Documents/surprise_project/surprise/stim/8_noeffect.mov 1329 06-Apr-2018 14:02:56 1.031767e+01 4.921508e+01 0 0
63em04_f21 479 40 69 45 45 right 1 5.000000e-01 /Users/lab/Documents/surprise_project/surprise/stim/9_noeffect.mov 1844 06-Apr-2018 14:03:19 -4.314018e+01 2.993337e+02 0 1
63em04_f21 479 41 25 45 45 NORESP 0 5.000000e-01 /Users/lab/Documents/surprise_project/surprise/stim/4_effect.mov 2998 06-Apr-2018 14:03:24 -3.443357e+02 -2.383917e+02 1 0
63em04_f21 479 42 32 -45 -45 left 1 5.000000e-01 /Users/lab/Documents/surprise_project/surprise/stim/4_noeffect.mov 1400 06-Apr-2018 14:03:28 -4.180321e+02 3.101440e+02 0 0
63em04_f21 479 43 50 45 -45 right 1 5.000000e-01 /Users/lab/Documents/surprise_project/surprise/stim/7_effect.mov 829 06-Apr-2018 14:03:31 -2.466874e+02 -4.828936e+02 1 0
63em04_f21 479 44 52 -45 -45 left 1 5.000000e-01 /Users/lab/Documents/surprise_project/surprise/stim/7_effect.mov 1362 06-Apr-2018 14:03:51 -9.411111e+01 -5.564813e+01 1 1
63em04_f21 479 45 59 -45 45 left 1 5.000000e-01 /Users/lab/Documents/surprise_project/surprise/stim/8_effect.mov 1345 06-Apr-2018 14:03:54 -3.014569e+02 -3.647608e+02 1 0
63em04_f21 479 46 65 45 45 right 1 5.000000e-01 /Users/lab/Documents/surprise_project/surprise/stim/9_effect.mov 1399 06-Apr-2018 14:03:58 -6.993092e+01 3.572815e+02 1 0
63em04_f21 479 47 27 -45 45 left 1 5.000000e-01 /Users/lab/Documents/surprise_project/surprise/stim/4_effect.mov 712 06-Apr-2018 14:04:01 2.854216e+02 -1.414272e+02 1 0
63em04_f21 479 48 5 45 45 right 1 5.000000e-01 /Users/lab/Documents/surprise_project/surprise/stim/1_noeffect.mov 1343 06-Apr-2018 14:04:26 -2.332738e+02 -2.054602e+02 1 1
63em04_f21 479 49 63 -45 45 left 1 5.000000e-01 /Users/lab/Documents/surprise_project/surprise/stim/8_noeffect.mov 1683 06-Apr-2018 14:04:30 -1.625362e+01 -1.820385e+02 0 0
63em04_f21 479 50 29 45 45 right 1 5.000000e-01 /Users/lab/Documents/surprise_project/surprise/stim/4_noeffect.mov 1532 06-Apr-2018 14:04:34 4.259863e+02 4.690590e+02 0 0
63em04_f21 479 51 19 -45 45 left 1 5.000000e-01 /Users/lab/Documents/surprise_project/surprise/stim/3_effect.mov 649 06-Apr-2018 14:04:37 1.742365e+02 -3.414463e+02 1 0
63em04_f21 479 52 11 -45 45 left 1 5.000000e-01 /Users/lab/Documents/surprise_project/surprise/stim/2_effect.mov 1444 06-Apr-2018 14:05:03 2.042749e+01 1.266630e+02 1 1
63em04_f21 479 53 41 45 45 right 1 5.000000e-01 /Users/lab/Documents/surprise_project/surprise/stim/6_effect.mov 1233 06-Apr-2018 14:05:07 -6.826872e+01 2.112163e+02 1 0
63em04_f21 479 54 47 -45 45 left 1 5.000000e-01 /Users/lab/Documents/surprise_project/surprise/stim/6_noeffect.mov 961 06-Apr-2018 14:05:10 8.490171e+01 -3.724169e+02 0 0
63em04_f21 479 55 10 45 -45 right 1 5.000000e-01 /Users/lab/Documents/surprise_project/surprise/stim/2_effect.mov 763 06-Apr-2018 14:05:13 -4.856725e+02 -1.440194e+02 1 0
63em04_f21 479 56 39 -45 45 left 1 5.000000e-01 /Users/lab/Documents/surprise_project/surprise/stim/5_noeffect.mov 1762 06-Apr-2018 14:05:31 -3.851333e+02 -3.620898e+01 0 1
63em04_f21 479 57 17 45 45 right 1 5.000000e-01 /Users/lab/Documents/surprise_project/surprise/stim/3_effect.mov 1279 06-Apr-2018 14:05:34 1.327455e+02 7.165337e+01 1 0
63em04_f21 479 58 23 -45 45 left 1 5.000000e-01 /Users/lab/Documents/surprise_project/surprise/stim/3_noeffect.mov 1279 06-Apr-2018 14:05:38 4.731261e+02 4.457484e+02 0 0
63em04_f21 479 59 30 45 -45 right 1 5.000000e-01 /Users/lab/Documents/surprise_project/surprise/stim/4_noeffect.mov 1232 06-Apr-2018 14:05:42 -3.730156e+02 4.075229e+02 0 0
63em04_f21 479 60 18 45 -45 NORESP 0 5.000000e-01 /Users/lab/Documents/surprise_project/surprise/stim/3_effect.mov 3013 06-Apr-2018 14:06:02 1.567085e+02 -3.067175e+02 1 1
63em04_f21 479 61 12 -45 -45 left 1 5.000000e-01 /Users/lab/Documents/surprise_project/surprise/stim/2_effect.mov 1299 06-Apr-2018 14:06:06 2.163602e+02 3.345745e+02 1 0
63em04_f21 479 62 40 -45 -45 left 1 5.000000e-01 /Users/lab/Documents/surprise_project/surprise/stim/5_noeffect.mov 1480 06-Apr-2018 14:06:09 1.169375e+02 3.497638e+02 0 0
63em04_f21 479 63 33 45 45 right 1 5.000000e-01 /Users/lab/Documents/surprise_project/surprise/stim/5_effect.mov 829 06-Apr-2018 14:06:13 -3.624608e+02 -3.555279e+02 1 0
63em04_f21 479 64 24 -45 -45 left 1 5.000000e-01 /Users/lab/Documents/surprise_project/surprise/stim/3_noeffect.mov 1778 06-Apr-2018 14:06:32 3.541688e+02 -4.078989e+02 0 1
63em04_f21 479 65 21 45 45 right 1 5.000000e-01 /Users/lab/Documents/surprise_project/surprise/stim/3_noeffect.mov 1416 06-Apr-2018 14:06:36 -4.540998e+02 4.311025e+01 0 0
63em04_f21 479 66 2 45 -45 right 1 5.000000e-01 /Users/lab/Documents/surprise_project/surprise/stim/1_effect.mov 1349 06-Apr-2018 14:06:39 -4.749507e+02 2.489958e+02 1 0
63em04_f21 479 67 8 -45 -45 left 1 5.000000e-01 /Users/lab/Documents/surprise_project/surprise/stim/1_noeffect.mov 1533 06-Apr-2018 14:06:43 9.824307e+01 -2.145182e+01 1 0
63em04_f21 479 68 4 -45 -45 left 1 5.000000e-01 /Users/lab/Documents/surprise_project/surprise/stim/1_effect.mov 1626 06-Apr-2018 14:07:09 -2.270743e+02 1.751299e+02 1 1
63em04_f21 479 69 60 -45 -45 left 1 5.000000e-01 /Users/lab/Documents/surprise_project/surprise/stim/8_effect.mov 1500 06-Apr-2018 14:07:13 2.634575e+02 -4.282254e+02 1 0
63em04_f21 479 70 43 -45 45 left 1 5.000000e-01 /Users/lab/Documents/surprise_project/surprise/stim/6_effect.mov 1346 06-Apr-2018 14:07:17 -2.365405e+02 1.673513e+02 1 0
63em04_f21 479 71 72 -45 -45 left 1 5.000000e-01 /Users/lab/Documents/surprise_project/surprise/stim/9_noeffect.mov 1195 06-Apr-2018 14:07:20 -2.324071e+02 -4.365066e+02 0 0
63em04_f21 479 72 45 45 45 right 1 5.000000e-01 /Users/lab/Documents/surprise_project/surprise/stim/6_noeffect.mov 1312 06-Apr-2018 14:07:24 -1.777829e+02 4.380611e+02 0 0
