subject_name subjectNumber iTrial unshuffled_trial targetOrientation flankersOrientation response correct onscreen_stim_duration magicShows rt date time_of_day deltaX deltaY surpriseClip isClipTrial
54is03_F19 442 1 60 -45 -45 left 1 5.000000e-01 /Users/lab/Documents/surprise_project/surprise/stim/8_effect.mov 875 05-Apr-2018 09:28:02 -3.909142e+02 6.977620e+01 1 1
54is03_F19 442 2 21 45 45 right 1 5.000000e-01 /Users/lab/Documents/surprise_project/surprise/stim/3_noeffect.mov 614 05-Apr-2018 09:28:05 -4.029792e+02 4.973402e+02 0 0
54is03_F19 442 3 49 45 45 right 1 5.000000e-01 /Users/lab/Documents/surprise_project/surprise/stim/7_effect.mov 646 05-Apr-2018 09:28:08 -1.001967e+02 -3.285264e+02 1 0
54is03_F19 442 4 3 -45 45 left 1 5.000000e-01 /Users/lab/Documents/surprise_project/surprise/stim/1_effect.mov 1078 05-Apr-2018 09:28:33 2.923796e+02 -4.708964e+02 1 1
54is03_F19 442 5 36 -45 45 left 1 5.000000e-01 /Users/lab/Documents/surprise_project/surprise/stim/5_effect.mov 915 05-Apr-2018 09:28:37 -2.730124e+02 -3.426557e+02 1 0
54is03_F19 442 6 72 -45 -45 left 1 5.000000e-01 /Users/lab/Documents/surprise_project/surprise/stim/9_noeffect.mov 880 05-Apr-2018 09:28:40 -2.421733e+02 4.470825e+02 0 0
54is03_F19 442 7 62 45 -45 right 1 5.000000e-01 /Users/lab/Documents/surprise_project/surprise/stim/8_noeffect.mov 646 05-Apr-2018 09:28:43 -4.375537e+01 1.505410e+02 0 0
54is03_F19 442 8 46 45 -45 right 1 5.000000e-01 /Users/lab/Documents/surprise_project/surprise/stim/6_noeffect.mov 812 05-Apr-2018 09:28:58 -4.248417e+02 -2.143070e+02 0 1
54is03_F19 442 9 55 -45 45 left 1 5.000000e-01 /Users/lab/Documents/surprise_project/surprise/stim/7_noeffect.mov 578 05-Apr-2018 09:29:01 -1.611384e+02 2.609645e+02 0 0
54is03_F19 442 10 50 45 -45 right 1 5.000000e-01 /Users/lab/Documents/surprise_project/surprise/stim/7_effect.mov 578 05-Apr-2018 09:29:04 -2.398589e+02 -5.721813e+01 1 0
54is03_F19 442 11 61 45 45 right 1 5.000000e-01 /Users/lab/Documents/surprise_project/surprise/stim/8_noeffect.mov 731 05-Apr-2018 09:29:07 -4.693397e+02 -3.496700e+02 0 0
54is03_F19 442 12 24 -45 -45 right 0 5.000000e-01 /Users/lab/Documents/surprise_project/surprise/stim/3_noeffect.mov 2346 05-Apr-2018 09:29:37 1.099707e+02 -4.062685e+02 0 1
54is03_F19 442 13 41 45 45 right 1 5.000000e-01 /Users/lab/Documents/surprise_project/surprise/stim/6_effect.mov 649 05-Apr-2018 09:29:40 -3.767148e+02 -2.315073e+02 1 0
54is03_F19 442 14 17 45 45 right 1 5.000000e-01 /Users/lab/Documents/surprise_project/surprise/stim/3_effect.mov 498 05-Apr-2018 09:29:43 4.298116e+02 -2.332861e+02 1 0
54is03_F19 442 15 5 45 45 right 1 5.000000e-01 /Users/lab/Documents/surprise_project/surprise/stim/1_noeffect.mov 446 05-Apr-2018 09:29:46 4.026310e+01 2.880647e+01 1 0
54is03_F19 442 16 40 -45 -45 left 1 5.000000e-01 /Users/lab/Documents/surprise_project/surprise/stim/5_noeffect.mov 1278 05-Apr-2018 09:30:03 3.743128e+02 -4.204632e+02 0 1
54is03_F19 442 17 22 45 -45 right 1 5.000000e-01 /Users/lab/Documents/surprise_project/surprise/stim/3_noeffect.mov 547 05-Apr-2018 09:30:06 2.064308e+02 -3.405888e+02 0 0
54is03_F19 442 18 66 45 -45 right 1 5.000000e-01 /Users/lab/Documents/surprise_project/surprise/stim/9_effect.mov 579 05-Apr-2018 09:30:09 3.431755e+02 5.755305e+01 1 0
54is03_F19 442 19 38 45 -45 right 1 5.000000e-01 /Users/lab/Documents/surprise_project/surprise/stim/5_noeffect.mov 528 05-Apr-2018 09:30:12 6.286364e+01 2.511784e+02 0 0
54is03_F19 442 20 39 -45 45 left 1 5.000000e-01 /Users/lab/Documents/surprise_project/surprise/stim/5_noeffect.mov 712 05-Apr-2018 09:30:28 -2.421558e+01 -4.918186e+02 0 1
54is03_F19 442 21 7 -45 45 left 1 5.000000e-01 /Users/lab/Documents/surprise_project/surprise/stim/1_noeffect.mov 780 05-Apr-2018 09:30:31 3.404730e+02 -6.110808e+01 1 0
54is03_F19 442 22 13 45 45 right 1 5.000000e-01 /Users/lab/Documents/surprise_project/surprise/stim/2_noeffect.mov 729 05-Apr-2018 09:30:35 -2.436371e+02 4.394890e+02 0 0
54is03_F19 442 23 70 45 -45 right 1 5.000000e-01 /Users/lab/Documents/surprise_project/surprise/stim/9_noeffect.mov 565 05-Apr-2018 09:30:38 -3.080004e+02 4.403035e+02 0 0
54is03_F19 442 24 47 -45 45 left 1 5.000000e-01 /Users/lab/Documents/surprise_project/surprise/stim/6_noeffect.mov 943 05-Apr-2018 09:30:53 -5.171534e+01 2.712203e+02 0 1
54is03_F19 442 25 28 -45 -45 right 0 5.000000e-01 /Users/lab/Documents/surprise_project/surprise/stim/4_effect.mov 408 05-Apr-2018 09:30:55 2.866863e+02 -3.044020e+02 1 0
54is03_F19 442 26 31 -45 45 left 1 5.000000e-01 /Users/lab/Documents/surprise_project/surprise/stim/4_noeffect.mov 387 05-Apr-2018 09:30:58 -1.829235e+02 4.357702e+02 0 0
54is03_F19 442 27 54 45 -45 right 1 5.000000e-01 /Users/lab/Documents/surprise_project/surprise/stim/7_noeffect.mov 548 05-Apr-2018 09:31:01 -1.429714e+02 -3.933992e+01 0 0
54is03_F19 442 28 29 45 45 right 1 5.000000e-01 /Users/lab/Documents/surprise_project/surprise/stim/4_noeffect.mov 762 05-Apr-2018 09:31:18 -3.010197e+02 -3.502893e+02 0 1
54is03_F19 442 29 48 -45 -45 left 1 5.000000e-01 /Users/lab/Documents/surprise_project/surprise/stim/6_noeffect.mov 765 05-Apr-2018 09:31:21 1.467881e+02 -3.947949e+02 0 0
54is03_F19 442 30 37 45 45 right 1 5.000000e-01 /Users/lab/Documents/surprise_project/surprise/stim/5_noeffect.mov 596 05-Apr-2018 09:31:24 -3.102671e+02 -4.984450e+02 0 0
54is03_F19 442 31 15 -45 45 left 1 5.000000e-01 /Users/lab/Documents/surprise_project/surprise/stim/2_noeffect.mov 761 05-Apr-2018 09:31:27 -1.683778e+01 -1.169536e+02 0 0
54is03_F19 442 32 25 45 45 right 1 5.000000e-01 /Users/lab/Documents/surprise_project/surprise/stim/4_effect.mov 878 05-Apr-2018 09:31:45 -2.246508e+01 6.223646e+01 1 1
54is03_F19 442 33 26 45 -45 right 1 5.000000e-01 /Users/lab/Documents/surprise_project/surprise/stim/4_effect.mov 597 05-Apr-2018 09:31:48 -2.892919e+01 -4.197019e+02 1 0
54is03_F19 442 34 1 45 45 right 1 5.000000e-01 /Users/lab/Documents/surprise_project/surprise/stim/1_effect.mov 950 05-Apr-2018 09:31:51 -3.269934e+02 -4.238346e+01 1 0
54is03_F19 442 35 71 -45 45 left 1 5.000000e-01 /Users/lab/Documents/surprise_project/surprise/stim/9_noeffect.mov 678 05-Apr-2018 09:31:54 -1.752296e+02 4.487958e+02 0 0
54is03_F19 442 36 11 -45 45 left 1 5.000000e-01 /Users/lab/Documents/surprise_project/surprise/stim/2_effect.mov 1195 05-Apr-2018 09:32:20 -1.323730e+02 2.768192e+02 1 1
54is03_F19 442 37 44 -45 -45 left 1 5.000000e-01 /Users/lab/Documents/surprise_project/surprise/stim/6_effect.mov 595 05-Apr-2018 09:32:23 2.998767e+02 -3.527580e+02 1 0
54is03_F19 442 38 33 45 45 left 0 5.000000e-01 /Users/lab/Documents/surprise_project/surprise/stim/5_effect.mov 698 05-Apr-2018 09:32:26 4.997149e+02 -5.249432e+01 1 0
54is03_F19 442 39 14 45 -45 right 1 5.000000e-01 /Users/lab/Documents/surprise_project/surprise/stim/2_noeffect.mov 664 05-Apr-2018 09:32:29 -2.524322e+02 2.778044e+02 0 0
54is03_F19 442 40 12 -45 -45 left 1 5.000000e-01 /Users/lab/Documents/surprise_project/surprise/stim/2_effect.mov 877 05-Apr-2018 09:32:55 -3.339159e+02 -2.574473e+02 1 1
54is03_F19 442 41 18 45 -45 right 1 5.000000e-01 /Users/lab/Documents/surprise_project/surprise/stim/3_effect.mov 580 05-Apr-2018 09:32:58 2.215173e+02 -5.453337e+00 1 0
54is03_F19 442 42 57 45 45 right 1 5.000000e-01 /Users/lab/Documents/surprise_project/surprise/stim/8_effect.mov 666 05-Apr-2018 09:33:01 -2.986580e+02 -4.041273e+02 1 0
54is03_F19 442 43 30 45 -45 right 1 5.000000e-01 /Users/lab/Documents/surprise_project/surprise/stim/4_noeffect.mov 514 05-Apr-2018 09:33:04 -2.608459e+01 -4.757708e+02 0 0
54is03_F19 442 44 36 -45 -45 left 1 5.000000e-01 /Users/lab/Documents/surprise_project/surprise/stim/5_effect.mov 1063 05-Apr-2018 09:33:21 2.917627e+02 4.430723e+02 1 1
54is03_F19 442 45 4 -45 -45 left 1 5.000000e-01 /Users/lab/Documents/surprise_project/surprise/stim/1_effect.mov 1063 05-Apr-2018 09:33:24 4.027120e+02 -1.003804e+02 1 0
54is03_F19 442 46 6 45 -45 right 1 5.000000e-01 /Users/lab/Documents/surprise_project/surprise/stim/1_noeffect.mov 515 05-Apr-2018 09:33:27 -3.341185e+02 4.549537e+01 1 0
54is03_F19 442 47 42 45 -45 right 1 5.000000e-01 /Users/lab/Documents/surprise_project/surprise/stim/6_effect.mov 565 05-Apr-2018 09:33:30 3.104962e+02 -1.527346e+02 1 0
54is03_F19 442 48 43 -45 45 left 1 5.000000e-01 /Users/lab/Documents/surprise_project/surprise/stim/6_effect.mov 914 05-Apr-2018 09:33:46 1.491868e+02 5.551359e+01 1 1
54is03_F19 442 49 67 -45 45 left 1 5.000000e-01 /Users/lab/Documents/surprise_project/surprise/stim/9_effect.mov 1145 05-Apr-2018 09:33:49 4.480351e+02 4.619511e+02 1 0
54is03_F19 442 50 9 45 45 right 1 5.000000e-01 /Users/lab/Documents/surprise_project/surprise/stim/2_effect.mov 565 05-Apr-2018 09:33:52 2.478872e+02 -3.638763e+02 1 0
54is03_F19 442 51 64 -45 -45 left 1 5.000000e-01 /Users/lab/Documents/surprise_project/surprise/stim/8_noeffect.mov 1080 05-Apr-2018 09:33:56 -1.368678e+02 1.292512e+02 0 0
54is03_F19 442 52 69 45 45 right 1 5.000000e-01 /Users/lab/Documents/surprise_project/surprise/stim/9_noeffect.mov 851 05-Apr-2018 09:34:17 4.720140e+02 2.976746e+02 0 1
54is03_F19 442 53 34 45 -45 right 1 5.000000e-01 /Users/lab/Documents/surprise_project/surprise/stim/5_effect.mov 616 05-Apr-2018 09:34:20 -4.944562e+02 -3.608919e+02 1 0
54is03_F19 442 54 16 -45 -45 left 1 5.000000e-01 /Users/lab/Documents/surprise_project/surprise/stim/2_noeffect.mov 614 05-Apr-2018 09:34:23 4.896136e+02 -4.869176e+02 0 0
54is03_F19 442 55 68 -45 -45 left 1 5.000000e-01 /Users/lab/Documents/surprise_project/surprise/stim/9_effect.mov 948 05-Apr-2018 09:34:27 -1.578647e+02 -1.893677e+02 1 0
54is03_F19 442 56 58 45 -45 right 1 5.000000e-01 /Users/lab/Documents/surprise_project/surprise/stim/8_effect.mov 812 05-Apr-2018 09:34:48 4.513108e+02 4.999359e+02 1 1
54is03_F19 442 57 23 -45 45 left 1 5.000000e-01 /Users/lab/Documents/surprise_project/surprise/stim/3_noeffect.mov 666 05-Apr-2018 09:34:51 -6.214376e+01 -2.748707e+02 0 0
54is03_F19 442 58 52 -45 -45 left 1 5.000000e-01 /Users/lab/Documents/surprise_project/surprise/stim/7_effect.mov 562 05-Apr-2018 09:34:54 -4.264090e+02 4.197420e+02 1 0
54is03_F19 442 59 19 -45 45 left 1 5.000000e-01 /Users/lab/Documents/surprise_project/surprise/stim/3_effect.mov 831 05-Apr-2018 09:34:57 4.772753e+02 6.615195e+01 1 0
54is03_F19 442 60 20 -45 -45 left 1 5.000000e-01 /Users/lab/Documents/surprise_project/surprise/stim/3_effect.mov 780 05-Apr-2018 09:35:16 2.031667e+02 -3.115015e+02 1 1
54is03_F19 442 61 32 -45 -45 left 1 5.000000e-01 /Users/lab/Documents/surprise_project/surprise/stim/4_noeffect.mov 812 05-Apr-2018 09:35:19 -4.836825e+02 2.010128e+02 0 0
54is03_F19 442 62 65 45 45 right 1 5.000000e-01 /Users/lab/Documents/surprise_project/surprise/stim/9_effect.mov 1162 05-Apr-2018 09:35:22 8.746765e+01 3.513713e+02 1 0
54is03_F19 442 63 53 45 45 right 1 5.000000e-01 /Users/lab/Documents/surprise_project/surprise/stim/7_noeffect.mov 494 05-Apr-2018 09:35:25 1.850725e+02 -2.002971e+02 0 0
54is03_F19 442 64 45 45 45 right 1 5.000000e-01 /Users/lab/Documents/surprise_project/surprise/stim/6_noeffect.mov 827 05-Apr-2018 09:35:40 5.155426e+01 4.742241e+02 0 1
54is03_F19 442 65 10 45 -45 right 1 5.000000e-01 /Users/lab/Documents/surprise_project/surprise/stim/2_effect.mov 482 05-Apr-2018 09:35:43 3.298227e+02 -3.857509e+02 1 0
54is03_F19 442 66 27 -45 45 left 1 5.000000e-01 /Users/lab/Documents/surprise_project/surprise/stim/4_effect.mov 782 05-Apr-2018 09:35:46 -4.065906e+02 -3.414011e+02 1 0
54is03_F19 442 67 56 -45 -45 left 1 5.000000e-01 /Users/lab/Documents/surprise_project/surprise/stim/7_noeffect.mov 665 05-Apr-2018 09:35:49 3.253451e+02 4.146140e+00 0 0
54is03_F19 442 68 59 -45 45 left 1 5.000000e-01 /Users/lab/Documents/surprise_project/surprise/stim/8_effect.mov 912 05-Apr-2018 09:36:11 1.357680e+01 -6.048476e+01 1 1
54is03_F19 442 69 2 45 -45 right 1 5.000000e-01 /Users/lab/Documents/surprise_project/surprise/stim/1_effect.mov 613 05-Apr-2018 09:36:14 3.041181e+02 3.064472e+02 1 0
54is03_F19 442 70 63 -45 45 right 0 5.000000e-01 /Users/lab/Documents/surprise_project/surprise/stim/8_noeffect.mov 629 05-Apr-2018 09:36:17 -3.787012e+02 -4.150847e+02 0 0
54is03_F19 442 71 51 -45 45 left 1 5.000000e-01 /Users/lab/Documents/surprise_project/surprise/stim/7_effect.mov 663 05-Apr-2018 09:36:20 1.171867e+00 4.264721e+02 1 0
54is03_F19 442 72 8 -45 -45 left 1 5.000000e-01 /Users/lab/Documents/surprise_project/surprise/stim/1_noeffect.mov 678 05-Apr-2018 09:36:23 -3.325997e+02 3.309765e+02 1 0
