subject_name subjectNumber iTrial unshuffled_trial targetOrientation flankersOrientation response correct onscreen_stim_duration magicShows rt date time_of_day deltaX deltaY surpriseClip isClipTrial
40mz27_f19 399 1 38 45 -45 NORESP 0 5.000000e-01 /Users/lab/Documents/surprise_project/surprise/stim/5_noeffect.mov 3003 03-Apr-2018 13:59:11 -6.302870e+01 4.207300e+02 0 1
40mz27_f19 399 2 65 45 45 NORESP 0 5.000000e-01 /Users/lab/Documents/surprise_project/surprise/stim/9_effect.mov 3013 03-Apr-2018 13:59:17 3.468768e+02 2.017644e+02 1 0
40mz27_f19 399 3 27 -45 45 NORESP 0 5.000000e-01 /Users/lab/Documents/surprise_project/surprise/stim/4_effect.mov 3014 03-Apr-2018 13:59:22 -3.499051e+02 1.006248e+02 1 0
40mz27_f19 399 4 53 45 45 right 1 5.000000e-01 /Users/lab/Documents/surprise_project/surprise/stim/7_noeffect.mov 2350 03-Apr-2018 13:59:43 -1.573586e+01 3.959824e+02 0 1
40mz27_f19 399 5 60 -45 -45 NORESP 0 5.000000e-01 /Users/lab/Documents/surprise_project/surprise/stim/8_effect.mov 3012 03-Apr-2018 13:59:48 4.812989e+02 -4.687531e+02 1 0
40mz27_f19 399 6 39 -45 45 NORESP 0 5.000000e-01 /Users/lab/Documents/surprise_project/surprise/stim/5_noeffect.mov 3014 03-Apr-2018 13:59:53 4.802279e+02 2.297723e+02 0 0
40mz27_f19 399 7 70 45 -45 right 1 5.000000e-01 /Users/lab/Documents/surprise_project/surprise/stim/9_noeffect.mov 180 03-Apr-2018 13:59:56 -8.648522e+01 -3.628269e+02 0 0
40mz27_f19 399 8 4 -45 -45 left 1 5.000000e-01 /Users/lab/Documents/surprise_project/surprise/stim/1_effect.mov 2493 03-Apr-2018 14:00:23 2.385414e+02 4.011950e+02 1 1
40mz27_f19 399 9 44 -45 -45 NORESP 0 5.000000e-01 /Users/lab/Documents/surprise_project/surprise/stim/6_effect.mov 2999 03-Apr-2018 14:00:28 8.557210e+01 -2.075047e+02 1 0
40mz27_f19 399 10 55 -45 45 NORESP 0 5.000000e-01 /Users/lab/Documents/surprise_project/surprise/stim/7_noeffect.mov 3012 03-Apr-2018 14:00:33 4.055299e+01 2.212033e+02 0 0
40mz27_f19 399 11 14 45 -45 right 1 5.000000e-01 /Users/lab/Documents/surprise_project/surprise/stim/2_noeffect.mov 729 03-Apr-2018 14:00:36 -4.132522e+02 4.777752e+02 0 0
40mz27_f19 399 12 58 45 -45 NORESP 0 5.000000e-01 /Users/lab/Documents/surprise_project/surprise/stim/8_effect.mov 3014 03-Apr-2018 14:01:00 3.678840e+02 -4.491415e+01 1 1
40mz27_f19 399 13 3 -45 45 NORESP 0 5.000000e-01 /Users/lab/Documents/surprise_project/surprise/stim/1_effect.mov 3000 03-Apr-2018 14:01:05 -5.505174e+01 2.299792e+02 1 0
40mz27_f19 399 14 49 45 45 right 1 5.000000e-01 /Users/lab/Documents/surprise_project/surprise/stim/7_effect.mov 164 03-Apr-2018 14:01:08 3.308362e+02 -1.703023e+02 1 0
40mz27_f19 399 15 13 45 45 NORESP 0 5.000000e-01 /Users/lab/Documents/surprise_project/surprise/stim/2_noeffect.mov 2999 03-Apr-2018 14:01:13 2.477796e+02 4.006474e+02 0 0
40mz27_f19 399 16 37 45 45 left 0 5.000000e-01 /Users/lab/Documents/surprise_project/surprise/stim/5_noeffect.mov 1862 03-Apr-2018 14:01:31 -4.325124e+02 2.317748e+02 0 1
40mz27_f19 399 17 31 -45 45 NORESP 0 5.000000e-01 /Users/lab/Documents/surprise_project/surprise/stim/4_noeffect.mov 3000 03-Apr-2018 14:01:36 -2.378797e+02 -3.434878e+02 0 0
40mz27_f19 399 18 16 -45 -45 left 1 5.000000e-01 /Users/lab/Documents/surprise_project/surprise/stim/2_noeffect.mov 71 03-Apr-2018 14:01:39 1.666049e+01 4.588455e+01 0 0
40mz27_f19 399 19 23 -45 45 right 0 5.000000e-01 /Users/lab/Documents/surprise_project/surprise/stim/3_noeffect.mov 914 03-Apr-2018 14:01:42 -3.217073e+02 -3.525440e+02 0 0
40mz27_f19 399 20 72 -45 -45 NORESP 0 5.000000e-01 /Users/lab/Documents/surprise_project/surprise/stim/9_noeffect.mov 3012 03-Apr-2018 14:02:06 2.250178e+02 -4.471978e+02 0 1
40mz27_f19 399 21 17 45 45 left 0 5.000000e-01 /Users/lab/Documents/surprise_project/surprise/stim/3_effect.mov 548 03-Apr-2018 14:02:09 4.404901e+02 3.021750e+02 1 0
40mz27_f19 399 22 59 -45 45 right 0 5.000000e-01 /Users/lab/Documents/surprise_project/surprise/stim/8_effect.mov 368 03-Apr-2018 14:02:12 -1.404441e+01 -3.953450e+02 1 0
40mz27_f19 399 23 56 -45 -45 left 1 5.000000e-01 /Users/lab/Documents/surprise_project/surprise/stim/7_noeffect.mov 484 03-Apr-2018 14:02:15 3.568721e+02 -3.347889e+01 0 0
40mz27_f19 399 24 7 -45 45 NORESP 0 5.000000e-01 /Users/lab/Documents/surprise_project/surprise/stim/1_noeffect.mov 3012 03-Apr-2018 14:02:42 -4.596736e+02 3.618085e+00 1 1
40mz27_f19 399 25 6 45 -45 left 0 5.000000e-01 /Users/lab/Documents/surprise_project/surprise/stim/1_noeffect.mov 1362 03-Apr-2018 14:02:46 1.087916e+02 -3.622196e+01 1 0
40mz27_f19 399 26 63 -45 45 NORESP 0 5.000000e-01 /Users/lab/Documents/surprise_project/surprise/stim/8_noeffect.mov 2998 03-Apr-2018 14:02:51 -5.893166e+01 3.881440e+02 0 0
40mz27_f19 399 27 46 45 -45 right 1 5.000000e-01 /Users/lab/Documents/surprise_project/surprise/stim/6_noeffect.mov 665 03-Apr-2018 14:02:55 4.028921e+02 1.784811e+02 0 0
40mz27_f19 399 28 1 45 45 NORESP 0 5.000000e-01 /Users/lab/Documents/surprise_project/surprise/stim/1_effect.mov 3013 03-Apr-2018 14:03:22 4.382140e+02 -4.281378e+02 1 1
40mz27_f19 399 29 24 -45 -45 left 1 5.000000e-01 /Users/lab/Documents/surprise_project/surprise/stim/3_noeffect.mov 1213 03-Apr-2018 14:03:26 -1.420292e+02 -1.563383e+02 0 0
40mz27_f19 399 30 19 -45 45 left 1 5.000000e-01 /Users/lab/Documents/surprise_project/surprise/stim/3_effect.mov 1780 03-Apr-2018 14:03:30 -2.007917e+02 -8.608036e+01 1 0
40mz27_f19 399 31 20 -45 -45 right 0 5.000000e-01 /Users/lab/Documents/surprise_project/surprise/stim/3_effect.mov 1231 03-Apr-2018 14:03:34 3.086492e+02 -6.911468e+01 1 0
40mz27_f19 399 32 71 -45 45 NORESP 0 5.000000e-01 /Users/lab/Documents/surprise_project/surprise/stim/9_noeffect.mov 3011 03-Apr-2018 14:03:58 4.465605e+02 2.313177e+02 0 1
40mz27_f19 399 33 36 -45 -45 right 0 5.000000e-01 /Users/lab/Documents/surprise_project/surprise/stim/5_effect.mov 1595 03-Apr-2018 14:04:02 9.981967e+01 -3.628137e+02 1 0
40mz27_f19 399 34 69 45 45 left 0 5.000000e-01 /Users/lab/Documents/surprise_project/surprise/stim/9_noeffect.mov 1150 03-Apr-2018 14:04:05 5.332402e+01 -8.498426e+01 0 0
40mz27_f19 399 35 36 -45 45 right 0 5.000000e-01 /Users/lab/Documents/surprise_project/surprise/stim/5_effect.mov 1500 03-Apr-2018 14:04:10 4.283094e+02 -4.121950e+02 1 0
40mz27_f19 399 36 67 -45 45 left 1 5.000000e-01 /Users/lab/Documents/surprise_project/surprise/stim/9_effect.mov 1513 03-Apr-2018 14:04:32 -3.097551e+02 -1.095789e+02 1 1
40mz27_f19 399 37 57 45 45 left 0 5.000000e-01 /Users/lab/Documents/surprise_project/surprise/stim/8_effect.mov 2132 03-Apr-2018 14:04:37 -4.603841e+02 -4.604001e+01 1 0
40mz27_f19 399 38 64 -45 -45 right 0 5.000000e-01 /Users/lab/Documents/surprise_project/surprise/stim/8_noeffect.mov 1316 03-Apr-2018 14:04:41 -4.032849e+02 4.240161e+02 0 0
40mz27_f19 399 39 52 -45 -45 right 0 5.000000e-01 /Users/lab/Documents/surprise_project/surprise/stim/7_effect.mov 1280 03-Apr-2018 14:04:45 -1.947814e+01 4.113913e+02 1 0
40mz27_f19 399 40 28 -45 -45 left 1 5.000000e-01 /Users/lab/Documents/surprise_project/surprise/stim/4_effect.mov 1711 03-Apr-2018 14:05:03 -4.775304e+02 1.436458e+02 1 1
40mz27_f19 399 41 18 45 -45 right 1 5.000000e-01 /Users/lab/Documents/surprise_project/surprise/stim/3_effect.mov 0 03-Apr-2018 14:05:05 2.513788e+02 -3.562867e+02 1 0
40mz27_f19 399 42 9 45 45 left 0 5.000000e-01 /Users/lab/Documents/surprise_project/surprise/stim/2_effect.mov 781 03-Apr-2018 14:05:08 -4.247458e+02 -3.302929e+02 1 0
40mz27_f19 399 43 43 -45 45 NORESP 0 5.000000e-01 /Users/lab/Documents/surprise_project/surprise/stim/6_effect.mov 3012 03-Apr-2018 14:05:14 2.774130e+02 4.143591e+02 1 0
40mz27_f19 399 44 34 45 -45 left 0 5.000000e-01 /Users/lab/Documents/surprise_project/surprise/stim/5_effect.mov 1344 03-Apr-2018 14:05:31 7.130234e+01 -7.622804e+01 1 1
40mz27_f19 399 45 22 45 -45 right 1 5.000000e-01 /Users/lab/Documents/surprise_project/surprise/stim/3_noeffect.mov 1733 03-Apr-2018 14:05:35 -4.655150e+02 -3.189484e+02 0 0
40mz27_f19 399 46 40 -45 -45 right 0 5.000000e-01 /Users/lab/Documents/surprise_project/surprise/stim/5_noeffect.mov 1647 03-Apr-2018 14:05:39 -1.181958e+01 7.543842e+01 0 0
40mz27_f19 399 47 15 -45 45 NORESP 0 5.000000e-01 /Users/lab/Documents/surprise_project/surprise/stim/2_noeffect.mov 2999 03-Apr-2018 14:05:45 1.382435e+02 -5.888768e+01 0 0
40mz27_f19 399 48 61 45 45 left 0 5.000000e-01 /Users/lab/Documents/surprise_project/surprise/stim/8_noeffect.mov 811 03-Apr-2018 14:06:06 2.271252e+02 -2.007939e+02 0 1
40mz27_f19 399 49 41 45 45 left 0 5.000000e-01 /Users/lab/Documents/surprise_project/surprise/stim/6_effect.mov 762 03-Apr-2018 14:06:09 4.713852e+02 1.278915e+02 1 0
40mz27_f19 399 50 30 45 -45 right 1 5.000000e-01 /Users/lab/Documents/surprise_project/surprise/stim/4_noeffect.mov 864 03-Apr-2018 14:06:12 -9.306167e+01 -2.047322e+02 0 0
40mz27_f19 399 51 12 -45 -45 right 0 5.000000e-01 /Users/lab/Documents/surprise_project/surprise/stim/2_effect.mov 966 03-Apr-2018 14:06:16 2.014292e+01 -3.831044e+02 1 0
40mz27_f19 399 52 47 -45 45 left 1 5.000000e-01 /Users/lab/Documents/surprise_project/surprise/stim/6_noeffect.mov 1528 03-Apr-2018 14:06:32 2.793654e+02 2.177907e+01 0 1
40mz27_f19 399 53 2 45 -45 right 1 5.000000e-01 /Users/lab/Documents/surprise_project/surprise/stim/1_effect.mov 1063 03-Apr-2018 14:06:35 3.422843e+02 -2.038468e+01 1 0
40mz27_f19 399 54 51 -45 45 right 0 5.000000e-01 /Users/lab/Documents/surprise_project/surprise/stim/7_effect.mov 1562 03-Apr-2018 14:06:39 -4.314437e+02 2.047400e+02 1 0
40mz27_f19 399 55 26 45 -45 right 1 5.000000e-01 /Users/lab/Documents/surprise_project/surprise/stim/4_effect.mov 995 03-Apr-2018 14:06:42 -2.125322e+02 1.788586e+02 1 0
40mz27_f19 399 56 45 45 45 left 0 5.000000e-01 /Users/lab/Documents/surprise_project/surprise/stim/6_noeffect.mov 1361 03-Apr-2018 14:06:58 -4.195725e+02 9.343294e+01 0 1
40mz27_f19 399 57 25 45 45 NORESP 0 5.000000e-01 /Users/lab/Documents/surprise_project/surprise/stim/4_effect.mov 2999 03-Apr-2018 14:07:03 9.644793e+00 -1.566607e+02 1 0
40mz27_f19 399 58 32 -45 -45 right 0 5.000000e-01 /Users/lab/Documents/surprise_project/surprise/stim/4_noeffect.mov 698 03-Apr-2018 14:07:06 -4.148709e+02 1.231088e+02 0 0
40mz27_f19 399 59 54 45 -45 right 1 5.000000e-01 /Users/lab/Documents/surprise_project/surprise/stim/7_noeffect.mov 930 03-Apr-2018 14:07:10 2.941690e+02 3.682608e+02 0 0
40mz27_f19 399 60 50 45 -45 right 1 5.000000e-01 /Users/lab/Documents/surprise_project/surprise/stim/7_effect.mov 1096 03-Apr-2018 14:07:30 -3.142424e+02 -4.395491e+02 1 1
40mz27_f19 399 61 5 45 45 left 0 5.000000e-01 /Users/lab/Documents/surprise_project/surprise/stim/1_noeffect.mov 1712 03-Apr-2018 14:07:34 3.692682e+02 -4.959528e+02 1 0
40mz27_f19 399 62 29 45 45 left 0 5.000000e-01 /Users/lab/Documents/surprise_project/surprise/stim/4_noeffect.mov 2246 03-Apr-2018 14:07:38 3.415370e+02 -4.969082e+02 0 0
40mz27_f19 399 63 33 45 45 right 1 5.000000e-01 /Users/lab/Documents/surprise_project/surprise/stim/5_effect.mov 1265 03-Apr-2018 14:07:42 -4.517474e+02 -4.569425e+02 1 0
40mz27_f19 399 64 10 45 -45 right 1 5.000000e-01 /Users/lab/Documents/surprise_project/surprise/stim/2_effect.mov 1111 03-Apr-2018 14:08:08 2.039464e+02 1.125648e+02 1 1
40mz27_f19 399 65 48 -45 -45 right 0 5.000000e-01 /Users/lab/Documents/surprise_project/surprise/stim/6_noeffect.mov 813 03-Apr-2018 14:08:11 4.826519e+02 -2.076751e+02 0 0
40mz27_f19 399 66 66 45 -45 left 0 5.000000e-01 /Users/lab/Documents/surprise_project/surprise/stim/9_effect.mov 1666 03-Apr-2018 14:08:15 2.568681e+02 -3.141201e+02 1 0
40mz27_f19 399 67 11 -45 45 left 1 5.000000e-01 /Users/lab/Documents/surprise_project/surprise/stim/2_effect.mov 1716 03-Apr-2018 14:08:19 2.609288e+01 3.216474e+02 1 0
40mz27_f19 399 68 62 45 -45 left 0 5.000000e-01 /Users/lab/Documents/surprise_project/surprise/stim/8_noeffect.mov 1578 03-Apr-2018 14:08:41 3.174098e+02 1.882120e+02 0 1
40mz27_f19 399 69 21 45 45 left 0 5.000000e-01 /Users/lab/Documents/surprise_project/surprise/stim/3_noeffect.mov 1313 03-Apr-2018 14:08:45 -1.297951e+00 4.685415e+02 0 0
40mz27_f19 399 70 8 -45 -45 left 1 5.000000e-01 /Users/lab/Documents/surprise_project/surprise/stim/1_noeffect.mov 1312 03-Apr-2018 14:08:49 -4.065352e+02 4.055650e+02 1 0
40mz27_f19 399 71 68 -45 -45 right 0 5.000000e-01 /Users/lab/Documents/surprise_project/surprise/stim/9_effect.mov 1081 03-Apr-2018 14:08:52 -2.958870e+02 -6.871401e+01 1 0
40mz27_f19 399 72 42 45 -45 left 0 5.000000e-01 /Users/lab/Documents/surprise_project/surprise/stim/6_effect.mov 1149 03-Apr-2018 14:08:56 2.895629e+02 3.114247e+02 1 0
