subject_name subjectNumber block iTrial unshuffled_trial targetOrientation flankersOrientation response correct onscreen_stim_duration magicShows rt date time_of_day deltaX deltaY surpriseClip isClipTrial isSurprise
be_me_ 1999_11_29_754_f 913 3 1 1 43 -45 45 left 1 3 /Users/lab/Documents/experiments/2019/surprise/stim/6_effect.mov 2223 15-May-2019 12:33:41 2.319413e+02 -1.645216e+02 1 1
be_me_ 1999_11_29_754_f 913 3 2 1 48 -45 -45 left 1 3 /Users/lab/Documents/experiments/2019/surprise/stim/6_noeffect.mov 1099 15-May-2019 12:33:44 -3.444933e+02 -2.919655e+02 0 0
be_me_ 1999_11_29_754_f 913 3 3 1 21 45 45 right 1 3 /Users/lab/Documents/experiments/2019/surprise/stim/3_noeffect.mov 800 15-May-2019 12:33:47 -3.108322e+02 2.898379e+02 0 0
be_me_ 1999_11_29_754_f 913 3 4 1 23 -45 45 left 1 3 /Users/lab/Documents/experiments/2019/surprise/stim/3_noeffect.mov 689 15-May-2019 12:34:05 -4.755275e+02 3.380565e+02 0 1
be_me_ 1999_11_29_754_f 913 3 5 1 12 -45 -45 left 1 3 /Users/lab/Documents/experiments/2019/surprise/stim/2_effect.mov 727 15-May-2019 12:34:08 3.627818e+02 -1.095626e+02 1 0
be_me_ 1999_11_29_754_f 913 3 6 1 61 45 45 right 1 3 /Users/lab/Documents/experiments/2019/surprise/stim/8_noeffect.mov 509 15-May-2019 12:34:11 1.077754e+02 -2.847053e+02 0 0
be_me_ 1999_11_29_754_f 913 3 7 1 19 -45 45 left 1 3 /Users/lab/Documents/experiments/2019/surprise/stim/3_effect.mov 634 15-May-2019 12:34:14 -2.320274e+02 3.664751e+02 1 0
be_me_ 1999_11_29_754_f 913 3 8 1 36 -45 -45 right 0 3 /Users/lab/Documents/experiments/2019/surprise/stim/5_effect.mov 737 15-May-2019 12:34:31 3.276937e+02 -4.166994e+02 1 1
be_me_ 1999_11_29_754_f 913 3 9 1 45 45 45 right 1 3 /Users/lab/Documents/experiments/2019/surprise/stim/6_noeffect.mov 792 15-May-2019 12:34:34 2.598115e+02 -1.723106e+02 0 0
be_me_ 1999_11_29_754_f 913 3 10 1 44 -45 -45 left 1 3 /Users/lab/Documents/experiments/2019/surprise/stim/6_effect.mov 501 15-May-2019 12:34:37 8.347239e+01 -1.297938e+02 1 0
be_me_ 1999_11_29_754_f 913 3 11 1 14 45 -45 right 1 3 /Users/lab/Documents/experiments/2019/surprise/stim/2_noeffect.mov 533 15-May-2019 12:34:40 3.993989e+02 1.388728e+02 0 0
be_me_ 1999_11_29_754_f 913 3 12 1 54 45 -45 right 1 3 /Users/lab/Documents/experiments/2019/surprise/stim/7_noeffect.mov 666 15-May-2019 12:34:59 -2.356715e+02 -1.472301e+02 0 1
be_me_ 1999_11_29_754_f 913 3 13 1 57 45 45 right 1 3 /Users/lab/Documents/experiments/2019/surprise/stim/8_effect.mov 492 15-May-2019 12:35:02 1.033655e+02 -1.465222e+02 1 0
be_me_ 1999_11_29_754_f 913 3 14 1 55 -45 45 left 1 3 /Users/lab/Documents/experiments/2019/surprise/stim/7_noeffect.mov 448 15-May-2019 12:35:05 -1.694811e+02 -9.591533e+01 0 0
be_me_ 1999_11_29_754_f 913 3 15 1 50 45 -45 right 1 3 /Users/lab/Documents/experiments/2019/surprise/stim/7_effect.mov 570 15-May-2019 12:35:07 -2.803963e+02 -3.772585e+02 1 0
be_me_ 1999_11_29_754_f 913 3 16 1 2 45 -45 right 1 3 /Users/lab/Documents/experiments/2019/surprise/stim/1_effect.mov 800 15-May-2019 12:35:32 -2.459239e+02 -4.225947e+02 1 1
be_me_ 1999_11_29_754_f 913 3 17 1 37 45 45 left 0 3 /Users/lab/Documents/experiments/2019/surprise/stim/5_noeffect.mov 614 15-May-2019 12:35:35 -2.381963e+02 6.679056e+01 0 0
be_me_ 1999_11_29_754_f 913 3 18 1 47 -45 45 left 1 3 /Users/lab/Documents/experiments/2019/surprise/stim/6_noeffect.mov 456 15-May-2019 12:35:38 9.534648e+01 1.907150e+02 0 0
be_me_ 1999_11_29_754_f 913 3 19 1 46 45 -45 right 1 3 /Users/lab/Documents/experiments/2019/surprise/stim/6_noeffect.mov 559 15-May-2019 12:35:41 -1.767252e+02 6.505980e+01 0 0
be_me_ 1999_11_29_754_f 913 3 20 1 39 -45 45 left 1 3 /Users/lab/Documents/experiments/2019/surprise/stim/5_noeffect.mov 717 15-May-2019 12:35:58 -1.961573e+02 -4.740210e+02 0 1
be_me_ 1999_11_29_754_f 913 3 21 1 63 -45 45 left 1 3 /Users/lab/Documents/experiments/2019/surprise/stim/8_noeffect.mov 714 15-May-2019 12:36:01 -2.839019e+02 -1.037072e+02 0 0
be_me_ 1999_11_29_754_f 913 3 22 1 20 -45 -45 left 1 3 /Users/lab/Documents/experiments/2019/surprise/stim/3_effect.mov 444 15-May-2019 12:36:03 -6.986645e+00 -1.524131e+02 1 0
be_me_ 1999_11_29_754_f 913 3 23 1 13 45 45 right 1 3 /Users/lab/Documents/experiments/2019/surprise/stim/2_noeffect.mov 564 15-May-2019 12:36:06 6.609797e+01 -2.814987e+02 0 0
be_me_ 1999_11_29_754_f 913 3 24 1 34 45 -45 right 1 3 /Users/lab/Documents/experiments/2019/surprise/stim/5_effect.mov 705 15-May-2019 12:36:23 2.283858e+02 3.820679e+02 1 1
be_me_ 1999_11_29_754_f 913 3 25 1 4 -45 -45 left 1 3 /Users/lab/Documents/experiments/2019/surprise/stim/1_effect.mov 519 15-May-2019 12:36:26 9.630251e+01 -3.710439e+02 1 0
be_me_ 1999_11_29_754_f 913 3 26 1 42 45 -45 right 1 3 /Users/lab/Documents/experiments/2019/surprise/stim/6_effect.mov 501 15-May-2019 12:36:29 2.177503e+01 -2.443328e+02 1 0
be_me_ 1999_11_29_754_f 913 3 27 1 71 -45 45 left 1 3 /Users/lab/Documents/experiments/2019/surprise/stim/9_noeffect.mov 827 15-May-2019 12:36:32 1.667947e+02 7.015432e+01 0 0
be_me_ 1999_11_29_754_f 913 3 28 1 49 45 45 right 1 3 /Users/lab/Documents/experiments/2019/surprise/stim/7_effect.mov 755 15-May-2019 12:36:51 3.357566e+02 -2.168194e+02 1 1
be_me_ 1999_11_29_754_f 913 3 29 1 11 -45 45 left 1 3 /Users/lab/Documents/experiments/2019/surprise/stim/2_effect.mov 734 15-May-2019 12:36:54 2.242909e+02 4.436444e+02 1 0
be_me_ 1999_11_29_754_f 913 3 30 1 8 -45 -45 left 1 3 /Users/lab/Documents/experiments/2019/surprise/stim/1_noeffect.mov 608 15-May-2019 12:36:57 -1.114625e+02 -1.041474e+02 1 0
be_me_ 1999_11_29_754_f 913 3 31 1 60 -45 -45 left 1 3 /Users/lab/Documents/experiments/2019/surprise/stim/8_effect.mov 681 15-May-2019 12:37:00 -4.693250e+02 -1.440090e+02 1 0
be_me_ 1999_11_29_754_f 913 3 32 1 72 -45 -45 left 1 3 /Users/lab/Documents/experiments/2019/surprise/stim/9_noeffect.mov 853 15-May-2019 12:37:22 -2.125617e+02 2.762504e+02 0 1
be_me_ 1999_11_29_754_f 913 3 33 1 27 -45 45 left 1 3 /Users/lab/Documents/experiments/2019/surprise/stim/4_effect.mov 452 15-May-2019 12:37:25 -3.997308e+02 3.996257e+02 1 0
be_me_ 1999_11_29_754_f 913 3 34 1 51 -45 45 left 1 3 /Users/lab/Documents/experiments/2019/surprise/stim/7_effect.mov 487 15-May-2019 12:37:28 1.364790e+02 -4.485880e+02 1 0
be_me_ 1999_11_29_754_f 913 3 35 1 64 -45 -45 left 1 3 /Users/lab/Documents/experiments/2019/surprise/stim/8_noeffect.mov 382 15-May-2019 12:37:30 9.987727e+01 -1.975221e+02 0 0
be_me_ 1999_11_29_754_f 913 3 36 1 29 45 45 right 1 3 /Users/lab/Documents/experiments/2019/surprise/stim/4_noeffect.mov 819 15-May-2019 12:37:48 -4.710158e+02 -1.330993e+02 0 1
be_me_ 1999_11_29_754_f 913 3 37 1 41 45 45 right 1 3 /Users/lab/Documents/experiments/2019/surprise/stim/6_effect.mov 640 15-May-2019 12:37:50 2.505502e+02 3.887527e+02 1 0
be_me_ 1999_11_29_754_f 913 3 38 1 68 -45 -45 left 1 3 /Users/lab/Documents/experiments/2019/surprise/stim/9_effect.mov 582 15-May-2019 12:37:53 4.092567e+02 -3.632208e+02 1 0
be_me_ 1999_11_29_754_f 913 3 39 1 65 45 45 right 1 3 /Users/lab/Documents/experiments/2019/surprise/stim/9_effect.mov 528 15-May-2019 12:37:56 8.511252e+01 4.982860e+01 1 0
be_me_ 1999_11_29_754_f 913 3 40 1 38 45 -45 right 1 3 /Users/lab/Documents/experiments/2019/surprise/stim/5_noeffect.mov 1069 15-May-2019 12:38:13 3.483246e+01 -1.415337e+02 0 1
be_me_ 1999_11_29_754_f 913 3 41 1 6 45 -45 right 1 3 /Users/lab/Documents/experiments/2019/surprise/stim/1_noeffect.mov 603 15-May-2019 12:38:16 3.034676e+02 2.056213e+02 1 0
be_me_ 1999_11_29_754_f 913 3 42 1 59 -45 45 left 1 3 /Users/lab/Documents/experiments/2019/surprise/stim/8_effect.mov 516 15-May-2019 12:38:19 3.350058e+02 4.064573e+02 1 0
be_me_ 1999_11_29_754_f 913 3 43 1 15 -45 45 left 1 3 /Users/lab/Documents/experiments/2019/surprise/stim/2_noeffect.mov 443 15-May-2019 12:38:22 -3.884233e+02 -1.141423e+02 0 0
be_me_ 1999_11_29_754_f 913 3 44 1 31 -45 45 left 1 3 /Users/lab/Documents/experiments/2019/surprise/stim/4_noeffect.mov 595 15-May-2019 12:38:39 -1.392054e+02 -2.533538e+02 0 1
be_me_ 1999_11_29_754_f 913 3 45 1 24 -45 -45 left 1 3 /Users/lab/Documents/experiments/2019/surprise/stim/3_noeffect.mov 569 15-May-2019 12:38:42 3.194862e+02 -4.250983e+02 0 0
be_me_ 1999_11_29_754_f 913 3 46 1 3 -45 45 left 1 3 /Users/lab/Documents/experiments/2019/surprise/stim/1_effect.mov 444 15-May-2019 12:38:44 3.588546e+02 -3.389214e+02 1 0
be_me_ 1999_11_29_754_f 913 3 47 1 32 -45 -45 left 1 3 /Users/lab/Documents/experiments/2019/surprise/stim/4_noeffect.mov 338 15-May-2019 12:38:47 -3.755875e+02 4.686515e+02 0 0
be_me_ 1999_11_29_754_f 913 3 48 1 66 45 -45 right 1 3 /Users/lab/Documents/experiments/2019/surprise/stim/9_effect.mov 925 15-May-2019 12:39:09 1.409756e+02 2.504153e+02 1 1
be_me_ 1999_11_29_754_f 913 3 49 1 69 45 45 right 1 3 /Users/lab/Documents/experiments/2019/surprise/stim/9_noeffect.mov 624 15-May-2019 12:39:12 3.066354e+02 -5.918571e+01 0 0
be_me_ 1999_11_29_754_f 913 3 50 1 53 45 45 right 1 3 /Users/lab/Documents/experiments/2019/surprise/stim/7_noeffect.mov 455 15-May-2019 12:39:15 -4.787121e+02 -1.165072e+02 0 0
be_me_ 1999_11_29_754_f 913 3 51 1 17 45 45 right 1 3 /Users/lab/Documents/experiments/2019/surprise/stim/3_effect.mov 345 15-May-2019 12:39:17 2.527978e+02 -1.986833e+02 1 0
be_me_ 1999_11_29_754_f 913 3 52 1 5 45 45 right 1 3 /Users/lab/Documents/experiments/2019/surprise/stim/1_noeffect.mov 520 15-May-2019 12:39:42 2.736650e+02 -2.447698e+02 1 1
be_me_ 1999_11_29_754_f 913 3 53 1 22 45 -45 right 1 3 /Users/lab/Documents/experiments/2019/surprise/stim/3_noeffect.mov 467 15-May-2019 12:39:45 8.730015e+00 4.616611e+02 0 0
be_me_ 1999_11_29_754_f 913 3 54 1 28 -45 -45 right 0 3 /Users/lab/Documents/experiments/2019/surprise/stim/4_effect.mov 453 15-May-2019 12:39:48 -1.810950e+02 -9.345705e+01 1 0
be_me_ 1999_11_29_754_f 913 3 55 1 40 -45 -45 left 1 3 /Users/lab/Documents/experiments/2019/surprise/stim/5_noeffect.mov 1255 15-May-2019 12:39:51 -3.194199e+02 9.135869e+01 0 0
be_me_ 1999_11_29_754_f 913 3 56 1 58 45 -45 right 1 3 /Users/lab/Documents/experiments/2019/surprise/stim/8_effect.mov 712 15-May-2019 12:40:12 -2.356289e+02 -2.836194e+02 1 1
be_me_ 1999_11_29_754_f 913 3 57 1 26 45 -45 right 1 3 /Users/lab/Documents/experiments/2019/surprise/stim/4_effect.mov 532 15-May-2019 12:40:15 -1.939516e+02 8.925576e+01 1 0
be_me_ 1999_11_29_754_f 913 3 58 1 9 45 45 right 1 3 /Users/lab/Documents/experiments/2019/surprise/stim/2_effect.mov 624 15-May-2019 12:40:18 -1.667971e+02 2.048381e+02 1 0
be_me_ 1999_11_29_754_f 913 3 59 1 62 45 -45 right 1 3 /Users/lab/Documents/experiments/2019/surprise/stim/8_noeffect.mov 640 15-May-2019 12:40:21 -1.279048e+02 -3.800678e+02 0 0
be_me_ 1999_11_29_754_f 913 3 60 1 25 45 45 right 1 3 /Users/lab/Documents/experiments/2019/surprise/stim/4_effect.mov 604 15-May-2019 12:40:38 -2.902738e+02 -3.097992e+02 1 1
be_me_ 1999_11_29_754_f 913 3 61 1 67 -45 45 left 1 3 /Users/lab/Documents/experiments/2019/surprise/stim/9_effect.mov 672 15-May-2019 12:40:41 3.952527e+02 2.775047e+02 1 0
be_me_ 1999_11_29_754_f 913 3 62 1 52 -45 -45 left 1 3 /Users/lab/Documents/experiments/2019/surprise/stim/7_effect.mov 459 15-May-2019 12:40:44 -1.372007e+02 2.757427e+02 1 0
be_me_ 1999_11_29_754_f 913 3 63 1 30 45 -45 right 1 3 /Users/lab/Documents/experiments/2019/surprise/stim/4_noeffect.mov 530 15-May-2019 12:40:47 -3.824620e+02 3.335694e+02 0 0
be_me_ 1999_11_29_754_f 913 3 64 1 16 -45 -45 left 1 3 /Users/lab/Documents/experiments/2019/surprise/stim/2_noeffect.mov 557 15-May-2019 12:41:11 -3.313040e+02 -3.935688e+02 0 1
be_me_ 1999_11_29_754_f 913 3 65 1 7 -45 45 left 1 3 /Users/lab/Documents/experiments/2019/surprise/stim/1_noeffect.mov 659 15-May-2019 12:41:14 -4.551797e+02 -1.511622e+02 1 0
be_me_ 1999_11_29_754_f 913 3 66 1 56 -45 -45 left 1 3 /Users/lab/Documents/experiments/2019/surprise/stim/7_noeffect.mov 422 15-May-2019 12:41:17 1.486494e+02 1.045385e+02 0 0
be_me_ 1999_11_29_754_f 913 3 67 1 10 45 -45 right 1 3 /Users/lab/Documents/experiments/2019/surprise/stim/2_effect.mov 523 15-May-2019 12:41:20 7.700624e+00 -1.033217e+02 1 0
be_me_ 1999_11_29_754_f 913 3 68 1 1 45 45 right 1 3 /Users/lab/Documents/experiments/2019/surprise/stim/1_effect.mov 920 15-May-2019 12:41:45 -2.790631e+02 -2.458017e+02 1 1
be_me_ 1999_11_29_754_f 913 3 69 1 70 45 -45 right 1 3 /Users/lab/Documents/experiments/2019/surprise/stim/9_noeffect.mov 416 15-May-2019 12:41:48 4.023378e+02 -1.691598e+02 0 0
be_me_ 1999_11_29_754_f 913 3 70 1 18 45 -45 right 1 3 /Users/lab/Documents/experiments/2019/surprise/stim/3_effect.mov 745 15-May-2019 12:41:51 -4.629595e+02 3.894334e+01 1 0
be_me_ 1999_11_29_754_f 913 3 71 1 33 45 45 right 1 3 /Users/lab/Documents/experiments/2019/surprise/stim/5_effect.mov 468 15-May-2019 12:41:54 -3.901307e+02 3.680945e+02 1 0
be_me_ 1999_11_29_754_f 913 3 72 1 36 -45 45 left 1 3 /Users/lab/Documents/experiments/2019/surprise/stim/5_effect.mov 527 15-May-2019 12:41:57 -2.682706e+02 -5.545110e+01 1 0
