subject_name subjectNumber iTrial unshuffled_trial targetOrientation flankersOrientation response correct onscreen_stim_duration magicShows rt date time_of_day deltaX deltaY surpriseClip isClipTrial
01pm23_m25 394 1 27 -45 45 left 1 5.000000e-01 /Users/lab/Documents/surprise_project/surprise/stim/4_effect.mov 977 03-Apr-2018 13:14:18 -4.829895e+02 -4.745387e+02 1 1
01pm23_m25 394 2 18 45 -45 right 1 5.000000e-01 /Users/lab/Documents/surprise_project/surprise/stim/3_effect.mov 563 03-Apr-2018 13:14:21 4.738153e+02 2.146512e+02 1 0
01pm23_m25 394 3 72 -45 -45 left 1 5.000000e-01 /Users/lab/Documents/surprise_project/surprise/stim/9_noeffect.mov 595 03-Apr-2018 13:14:24 3.173018e+02 1.364846e+02 0 0
01pm23_m25 394 4 13 45 45 right 1 5.000000e-01 /Users/lab/Documents/surprise_project/surprise/stim/2_noeffect.mov 710 03-Apr-2018 13:14:48 -2.094601e+01 4.560272e+02 0 1
01pm23_m25 394 5 64 -45 -45 left 1 5.000000e-01 /Users/lab/Documents/surprise_project/surprise/stim/8_noeffect.mov 545 03-Apr-2018 13:14:51 8.929935e+01 3.691634e+01 0 0
01pm23_m25 394 6 11 -45 45 left 1 5.000000e-01 /Users/lab/Documents/surprise_project/surprise/stim/2_effect.mov 678 03-Apr-2018 13:14:54 -2.401337e+02 3.876973e+02 1 0
01pm23_m25 394 7 63 -45 45 left 1 5.000000e-01 /Users/lab/Documents/surprise_project/surprise/stim/8_noeffect.mov 645 03-Apr-2018 13:14:57 3.626102e+02 2.482711e+02 0 0
01pm23_m25 394 8 45 45 45 right 1 5.000000e-01 /Users/lab/Documents/surprise_project/surprise/stim/6_noeffect.mov 712 03-Apr-2018 13:15:12 -5.889926e+00 -2.095597e+02 0 1
01pm23_m25 394 9 41 45 45 right 1 5.000000e-01 /Users/lab/Documents/surprise_project/surprise/stim/6_effect.mov 530 03-Apr-2018 13:15:15 -2.277790e+02 3.131493e+02 1 0
01pm23_m25 394 10 71 -45 45 left 1 5.000000e-01 /Users/lab/Documents/surprise_project/surprise/stim/9_noeffect.mov 486 03-Apr-2018 13:15:18 -5.817731e+01 -4.068252e+02 0 0
01pm23_m25 394 11 14 45 -45 right 1 5.000000e-01 /Users/lab/Documents/surprise_project/surprise/stim/2_noeffect.mov 632 03-Apr-2018 13:15:21 -4.928805e+02 -1.595961e+02 0 0
01pm23_m25 394 12 50 45 -45 right 1 5.000000e-01 /Users/lab/Documents/surprise_project/surprise/stim/7_effect.mov 1314 03-Apr-2018 13:15:41 4.827925e+02 -2.639540e+02 1 1
01pm23_m25 394 13 44 -45 -45 left 1 5.000000e-01 /Users/lab/Documents/surprise_project/surprise/stim/6_effect.mov 711 03-Apr-2018 13:15:44 -4.235906e+02 -4.138695e+01 1 0
01pm23_m25 394 14 49 45 45 left 0 5.000000e-01 /Users/lab/Documents/surprise_project/surprise/stim/7_effect.mov 579 03-Apr-2018 13:15:47 -1.820162e+02 -1.051953e+02 1 0
01pm23_m25 394 15 2 45 -45 right 1 5.000000e-01 /Users/lab/Documents/surprise_project/surprise/stim/1_effect.mov 580 03-Apr-2018 13:15:50 -1.558631e+02 1.872976e+02 1 0
01pm23_m25 394 16 3 -45 45 left 1 5.000000e-01 /Users/lab/Documents/surprise_project/surprise/stim/1_effect.mov 1029 03-Apr-2018 13:16:15 3.979200e+02 -1.774488e+02 1 1
01pm23_m25 394 17 39 -45 45 left 1 5.000000e-01 /Users/lab/Documents/surprise_project/surprise/stim/5_noeffect.mov 678 03-Apr-2018 13:16:18 -2.626231e+01 -3.857561e+02 0 0
01pm23_m25 394 18 6 45 -45 right 1 5.000000e-01 /Users/lab/Documents/surprise_project/surprise/stim/1_noeffect.mov 578 03-Apr-2018 13:16:21 4.747260e+02 1.231315e+02 1 0
01pm23_m25 394 19 60 -45 -45 left 1 5.000000e-01 /Users/lab/Documents/surprise_project/surprise/stim/8_effect.mov 628 03-Apr-2018 13:16:24 -2.692730e+02 4.296979e+01 1 0
01pm23_m25 394 20 33 45 45 right 1 5.000000e-01 /Users/lab/Documents/surprise_project/surprise/stim/5_effect.mov 696 03-Apr-2018 13:16:41 1.265752e+02 2.684922e+02 1 1
01pm23_m25 394 21 67 -45 45 left 1 5.000000e-01 /Users/lab/Documents/surprise_project/surprise/stim/9_effect.mov 662 03-Apr-2018 13:16:44 3.133724e+02 2.986106e+02 1 0
01pm23_m25 394 22 10 45 -45 right 1 5.000000e-01 /Users/lab/Documents/surprise_project/surprise/stim/2_effect.mov 495 03-Apr-2018 13:16:47 -4.542753e+02 9.263610e+01 1 0
01pm23_m25 394 23 29 45 45 right 1 5.000000e-01 /Users/lab/Documents/surprise_project/surprise/stim/4_noeffect.mov 598 03-Apr-2018 13:16:50 6.963265e+01 3.198440e+02 0 0
01pm23_m25 394 24 21 45 45 right 1 5.000000e-01 /Users/lab/Documents/surprise_project/surprise/stim/3_noeffect.mov 695 03-Apr-2018 13:17:08 4.102915e+02 7.744380e+01 0 1
01pm23_m25 394 25 61 45 45 right 1 5.000000e-01 /Users/lab/Documents/surprise_project/surprise/stim/8_noeffect.mov 470 03-Apr-2018 13:17:11 2.874174e+02 -4.112330e+02 0 0
01pm23_m25 394 26 69 45 45 right 1 5.000000e-01 /Users/lab/Documents/surprise_project/surprise/stim/9_noeffect.mov 495 03-Apr-2018 13:17:14 1.898093e+02 3.662512e+02 0 0
01pm23_m25 394 27 48 -45 -45 right 0 5.000000e-01 /Users/lab/Documents/surprise_project/surprise/stim/6_noeffect.mov 457 03-Apr-2018 13:17:17 -7.778892e+00 -2.919453e+02 0 0
01pm23_m25 394 28 40 -45 -45 left 1 5.000000e-01 /Users/lab/Documents/surprise_project/surprise/stim/5_noeffect.mov 809 03-Apr-2018 13:17:34 1.943544e+02 2.968603e+02 0 1
01pm23_m25 394 29 47 -45 45 left 1 5.000000e-01 /Users/lab/Documents/surprise_project/surprise/stim/6_noeffect.mov 629 03-Apr-2018 13:17:37 3.547961e+02 -2.561607e+02 0 0
01pm23_m25 394 30 25 45 45 right 1 5.000000e-01 /Users/lab/Documents/surprise_project/surprise/stim/4_effect.mov 629 03-Apr-2018 13:17:40 -1.723663e+02 -1.110012e+02 1 0
01pm23_m25 394 31 24 -45 -45 left 1 5.000000e-01 /Users/lab/Documents/surprise_project/surprise/stim/3_noeffect.mov 612 03-Apr-2018 13:17:43 2.293161e+02 -2.910493e+02 0 0
01pm23_m25 394 32 62 45 -45 right 1 5.000000e-01 /Users/lab/Documents/surprise_project/surprise/stim/8_noeffect.mov 711 03-Apr-2018 13:18:04 2.716328e+02 1.980165e+02 0 1
01pm23_m25 394 33 28 -45 -45 left 1 5.000000e-01 /Users/lab/Documents/surprise_project/surprise/stim/4_effect.mov 546 03-Apr-2018 13:18:07 -1.782057e+02 -1.137230e+02 1 0
01pm23_m25 394 34 59 -45 45 left 1 5.000000e-01 /Users/lab/Documents/surprise_project/surprise/stim/8_effect.mov 545 03-Apr-2018 13:18:09 3.746464e+02 6.814953e+01 1 0
01pm23_m25 394 35 58 45 -45 right 1 5.000000e-01 /Users/lab/Documents/surprise_project/surprise/stim/8_effect.mov 546 03-Apr-2018 13:18:12 -3.580710e+02 -2.740147e+02 1 0
01pm23_m25 394 36 20 -45 -45 left 1 5.000000e-01 /Users/lab/Documents/surprise_project/surprise/stim/3_effect.mov 930 03-Apr-2018 13:18:31 3.091657e+02 4.795739e+02 1 1
01pm23_m25 394 37 46 45 -45 right 1 5.000000e-01 /Users/lab/Documents/surprise_project/surprise/stim/6_noeffect.mov 545 03-Apr-2018 13:18:34 2.163107e+01 -1.504421e+02 0 0
01pm23_m25 394 38 70 45 -45 right 1 5.000000e-01 /Users/lab/Documents/surprise_project/surprise/stim/9_noeffect.mov 529 03-Apr-2018 13:18:37 -1.664724e+00 2.476502e+02 0 0
01pm23_m25 394 39 57 45 45 right 1 5.000000e-01 /Users/lab/Documents/surprise_project/surprise/stim/8_effect.mov 437 03-Apr-2018 13:18:40 -9.343762e+01 3.567598e+02 1 0
01pm23_m25 394 40 56 -45 -45 left 1 5.000000e-01 /Users/lab/Documents/surprise_project/surprise/stim/7_noeffect.mov 727 03-Apr-2018 13:18:59 1.896877e+02 -2.159469e+02 0 1
01pm23_m25 394 41 38 45 -45 right 1 5.000000e-01 /Users/lab/Documents/surprise_project/surprise/stim/5_noeffect.mov 546 03-Apr-2018 13:19:02 -4.783041e+02 5.319321e+01 0 0
01pm23_m25 394 42 7 -45 45 left 1 5.000000e-01 /Users/lab/Documents/surprise_project/surprise/stim/1_noeffect.mov 595 03-Apr-2018 13:19:05 -4.789775e+02 1.132057e+02 1 0
01pm23_m25 394 43 66 45 -45 right 1 5.000000e-01 /Users/lab/Documents/surprise_project/surprise/stim/9_effect.mov 512 03-Apr-2018 13:19:07 1.964922e+02 4.570257e+02 1 0
01pm23_m25 394 44 32 -45 -45 left 1 5.000000e-01 /Users/lab/Documents/surprise_project/surprise/stim/4_noeffect.mov 811 03-Apr-2018 13:19:25 -4.371374e+02 -2.770817e+02 0 1
01pm23_m25 394 45 12 -45 -45 right 0 5.000000e-01 /Users/lab/Documents/surprise_project/surprise/stim/2_effect.mov 695 03-Apr-2018 13:19:28 -3.056163e+02 2.833163e+01 1 0
01pm23_m25 394 46 31 -45 45 left 1 5.000000e-01 /Users/lab/Documents/surprise_project/surprise/stim/4_noeffect.mov 596 03-Apr-2018 13:19:31 -2.695456e+02 1.495277e+02 0 0
01pm23_m25 394 47 22 45 -45 right 1 5.000000e-01 /Users/lab/Documents/surprise_project/surprise/stim/3_noeffect.mov 578 03-Apr-2018 13:19:34 2.148507e+02 9.351836e+00 0 0
01pm23_m25 394 48 17 45 45 right 1 5.000000e-01 /Users/lab/Documents/surprise_project/surprise/stim/3_effect.mov 795 03-Apr-2018 13:19:52 -2.306021e+02 3.531442e+02 1 1
01pm23_m25 394 49 52 -45 -45 left 1 5.000000e-01 /Users/lab/Documents/surprise_project/surprise/stim/7_effect.mov 562 03-Apr-2018 13:19:55 1.350352e+01 -1.198263e+02 1 0
01pm23_m25 394 50 26 45 -45 right 1 5.000000e-01 /Users/lab/Documents/surprise_project/surprise/stim/4_effect.mov 544 03-Apr-2018 13:19:58 4.881618e+02 -2.887868e+02 1 0
01pm23_m25 394 51 54 45 -45 right 1 5.000000e-01 /Users/lab/Documents/surprise_project/surprise/stim/7_noeffect.mov 712 03-Apr-2018 13:20:01 3.551853e+02 2.692475e+02 0 0
01pm23_m25 394 52 36 -45 -45 left 1 5.000000e-01 /Users/lab/Documents/surprise_project/surprise/stim/5_effect.mov 828 03-Apr-2018 13:20:18 -5.555581e+01 -2.305162e+02 1 1
01pm23_m25 394 53 36 -45 45 left 1 5.000000e-01 /Users/lab/Documents/surprise_project/surprise/stim/5_effect.mov 596 03-Apr-2018 13:20:21 2.702260e+02 -3.975068e+02 1 0
01pm23_m25 394 54 55 -45 45 left 1 5.000000e-01 /Users/lab/Documents/surprise_project/surprise/stim/7_noeffect.mov 728 03-Apr-2018 13:20:24 -4.937596e+02 3.673683e+02 0 0
01pm23_m25 394 55 19 -45 45 left 1 5.000000e-01 /Users/lab/Documents/surprise_project/surprise/stim/3_effect.mov 679 03-Apr-2018 13:20:27 -4.561289e+02 -1.864288e+02 1 0
01pm23_m25 394 56 53 45 45 right 1 5.000000e-01 /Users/lab/Documents/surprise_project/surprise/stim/7_noeffect.mov 1044 03-Apr-2018 13:20:47 3.049792e+02 -8.159061e+01 0 1
01pm23_m25 394 57 68 -45 -45 left 1 5.000000e-01 /Users/lab/Documents/surprise_project/surprise/stim/9_effect.mov 763 03-Apr-2018 13:20:50 1.939232e+02 -4.810052e+01 1 0
01pm23_m25 394 58 42 45 -45 right 1 5.000000e-01 /Users/lab/Documents/surprise_project/surprise/stim/6_effect.mov 596 03-Apr-2018 13:20:53 -1.422201e+02 -6.681158e+01 1 0
01pm23_m25 394 59 65 45 45 right 1 5.000000e-01 /Users/lab/Documents/surprise_project/surprise/stim/9_effect.mov 879 03-Apr-2018 13:20:56 4.136219e+02 4.159293e+02 1 0
01pm23_m25 394 60 34 45 -45 right 1 5.000000e-01 /Users/lab/Documents/surprise_project/surprise/stim/5_effect.mov 727 03-Apr-2018 13:21:13 -3.375847e+02 -4.254000e+02 1 1
01pm23_m25 394 61 15 -45 45 left 1 5.000000e-01 /Users/lab/Documents/surprise_project/surprise/stim/2_noeffect.mov 613 03-Apr-2018 13:21:16 -3.746428e+02 -4.110036e+02 0 0
01pm23_m25 394 62 8 -45 -45 left 1 5.000000e-01 /Users/lab/Documents/surprise_project/surprise/stim/1_noeffect.mov 545 03-Apr-2018 13:21:19 3.185616e+02 2.035102e+02 1 0
01pm23_m25 394 63 5 45 45 right 1 5.000000e-01 /Users/lab/Documents/surprise_project/surprise/stim/1_noeffect.mov 545 03-Apr-2018 13:21:22 -6.366941e+01 2.146644e+01 1 0
01pm23_m25 394 64 23 -45 45 left 1 5.000000e-01 /Users/lab/Documents/surprise_project/surprise/stim/3_noeffect.mov 844 03-Apr-2018 13:21:40 -2.553326e+02 3.000649e+02 0 1
01pm23_m25 394 65 37 45 45 left 0 5.000000e-01 /Users/lab/Documents/surprise_project/surprise/stim/5_noeffect.mov 1913 03-Apr-2018 13:21:44 -2.845276e+02 -2.877403e+01 0 0
01pm23_m25 394 66 9 45 45 right 1 5.000000e-01 /Users/lab/Documents/surprise_project/surprise/stim/2_effect.mov 483 03-Apr-2018 13:21:47 1.354254e+01 -7.846256e+01 1 0
01pm23_m25 394 67 16 -45 -45 left 1 5.000000e-01 /Users/lab/Documents/surprise_project/surprise/stim/2_noeffect.mov 730 03-Apr-2018 13:21:50 -4.681363e+02 -3.821022e+02 0 0
01pm23_m25 394 68 30 45 -45 right 1 5.000000e-01 /Users/lab/Documents/surprise_project/surprise/stim/4_noeffect.mov 725 03-Apr-2018 13:22:07 -3.427014e+02 3.250654e+02 0 1
01pm23_m25 394 69 4 -45 -45 left 1 5.000000e-01 /Users/lab/Documents/surprise_project/surprise/stim/1_effect.mov 597 03-Apr-2018 13:22:10 3.920270e+02 -2.248575e+02 1 0
01pm23_m25 394 70 43 -45 45 left 1 5.000000e-01 /Users/lab/Documents/surprise_project/surprise/stim/6_effect.mov 488 03-Apr-2018 13:22:13 6.608610e+01 1.884865e+02 1 0
01pm23_m25 394 71 1 45 45 right 1 5.000000e-01 /Users/lab/Documents/surprise_project/surprise/stim/1_effect.mov 492 03-Apr-2018 13:22:16 2.505074e+02 -3.030791e+02 1 0
01pm23_m25 394 72 51 -45 45 left 1 5.000000e-01 /Users/lab/Documents/surprise_project/surprise/stim/7_effect.mov 528 03-Apr-2018 13:22:19 -2.194481e+02 6.970791e+01 1 0
