subject_name subjectNumber iTrial unshuffled_trial targetOrientation flankersOrientation response correct onscreen_stim_duration magicShows rt date time_of_day deltaX deltaY surpriseClip isClipTrial
12lc23_f26 7 1 9 45 45 right 1 5.000000e-01 /Users/lab/Documents/surprise_project/surprise/stim/2_effect.mov 867 06-Mar-2018 10:04:56 -4.847774e+02 -6.772683e+01 1 1
12lc23_f26 7 2 54 45 -45 right 1 5.000000e-01 /Users/lab/Documents/surprise_project/surprise/stim/7_noeffect.mov 534 06-Mar-2018 10:04:59 3.859120e+02 3.990820e+02 0 0
12lc23_f26 7 3 23 -45 45 left 1 5.000000e-01 /Users/lab/Documents/surprise_project/surprise/stim/3_noeffect.mov 491 06-Mar-2018 10:05:02 -3.367239e+02 -3.559706e+02 0 0
12lc23_f26 7 4 30 45 -45 right 1 5.000000e-01 /Users/lab/Documents/surprise_project/surprise/stim/4_noeffect.mov 530 06-Mar-2018 10:05:19 -3.363674e+02 -3.419643e+02 0 1
12lc23_f26 7 5 33 45 45 right 1 5.000000e-01 /Users/lab/Documents/surprise_project/surprise/stim/5_effect.mov 518 06-Mar-2018 10:05:22 9.048142e+01 -1.401255e+02 1 0
12lc23_f26 7 6 52 -45 -45 left 1 5.000000e-01 /Users/lab/Documents/surprise_project/surprise/stim/7_effect.mov 566 06-Mar-2018 10:05:25 3.235430e+02 2.143721e+02 1 0
12lc23_f26 7 7 4 -45 -45 left 1 5.000000e-01 /Users/lab/Documents/surprise_project/surprise/stim/1_effect.mov 520 06-Mar-2018 10:05:28 1.961657e+02 2.118207e+01 1 0
12lc23_f26 7 8 55 -45 45 left 1 5.000000e-01 /Users/lab/Documents/surprise_project/surprise/stim/7_noeffect.mov 712 06-Mar-2018 10:05:47 1.147854e+02 4.927568e+02 0 1
12lc23_f26 7 9 71 -45 45 left 1 5.000000e-01 /Users/lab/Documents/surprise_project/surprise/stim/9_noeffect.mov 616 06-Mar-2018 10:05:50 3.937433e+02 -2.255572e+02 0 0
12lc23_f26 7 10 47 -45 45 left 1 5.000000e-01 /Users/lab/Documents/surprise_project/surprise/stim/6_noeffect.mov 633 06-Mar-2018 10:05:53 -4.876034e+02 9.706666e+01 0 0
12lc23_f26 7 11 3 -45 45 left 1 5.000000e-01 /Users/lab/Documents/surprise_project/surprise/stim/1_effect.mov 601 06-Mar-2018 10:05:56 -2.977088e+02 -3.884115e+02 1 0
12lc23_f26 7 12 64 -45 -45 left 1 5.000000e-01 /Users/lab/Documents/surprise_project/surprise/stim/8_noeffect.mov 563 06-Mar-2018 10:06:16 3.654121e+02 -1.021316e+02 0 1
12lc23_f26 7 13 44 -45 -45 left 1 5.000000e-01 /Users/lab/Documents/surprise_project/surprise/stim/6_effect.mov 400 06-Mar-2018 10:06:19 -2.693940e+02 5.015230e+01 1 0
12lc23_f26 7 14 11 -45 45 left 1 5.000000e-01 /Users/lab/Documents/surprise_project/surprise/stim/2_effect.mov 584 06-Mar-2018 10:06:22 -4.056795e+02 3.536738e+02 1 0
12lc23_f26 7 15 67 -45 45 left 1 5.000000e-01 /Users/lab/Documents/surprise_project/surprise/stim/9_effect.mov 447 06-Mar-2018 10:06:25 1.062807e+02 2.570690e+02 1 0
12lc23_f26 7 16 51 -45 45 left 1 5.000000e-01 /Users/lab/Documents/surprise_project/surprise/stim/7_effect.mov 2380 06-Mar-2018 10:06:56 -1.679248e+01 -1.036024e+01 1 1
12lc23_f26 7 17 8 -45 -45 left 1 5.000000e-01 /Users/lab/Documents/surprise_project/surprise/stim/1_noeffect.mov 731 06-Mar-2018 10:06:59 -4.973214e+02 1.943850e+01 1 0
12lc23_f26 7 18 18 45 -45 right 1 5.000000e-01 /Users/lab/Documents/surprise_project/surprise/stim/3_effect.mov 634 06-Mar-2018 10:07:02 2.738003e+02 1.235634e+02 1 0
12lc23_f26 7 19 65 45 45 right 1 5.000000e-01 /Users/lab/Documents/surprise_project/surprise/stim/9_effect.mov 834 06-Mar-2018 10:07:05 3.729231e+02 2.765204e+02 1 0
12lc23_f26 7 20 56 -45 -45 left 1 5.000000e-01 /Users/lab/Documents/surprise_project/surprise/stim/7_noeffect.mov 728 06-Mar-2018 10:07:24 -3.744117e+02 -3.525548e+02 0 1
12lc23_f26 7 21 38 45 -45 right 1 5.000000e-01 /Users/lab/Documents/surprise_project/surprise/stim/5_noeffect.mov 848 06-Mar-2018 10:07:27 1.892907e+02 4.327646e+02 0 0
12lc23_f26 7 22 66 45 -45 right 1 5.000000e-01 /Users/lab/Documents/surprise_project/surprise/stim/9_effect.mov 832 06-Mar-2018 10:07:30 3.267105e+02 1.247334e+02 1 0
12lc23_f26 7 23 27 -45 45 left 1 5.000000e-01 /Users/lab/Documents/surprise_project/surprise/stim/4_effect.mov 784 06-Mar-2018 10:07:34 3.268004e+02 4.923018e+02 1 0
12lc23_f26 7 24 58 45 -45 right 1 5.000000e-01 /Users/lab/Documents/surprise_project/surprise/stim/8_effect.mov 1580 06-Mar-2018 10:07:55 -3.270605e+02 3.203334e+02 1 1
12lc23_f26 7 25 50 45 -45 right 1 5.000000e-01 /Users/lab/Documents/surprise_project/surprise/stim/7_effect.mov 1234 06-Mar-2018 10:07:59 4.913916e+02 5.471377e+00 1 0
12lc23_f26 7 26 19 -45 45 left 1 5.000000e-01 /Users/lab/Documents/surprise_project/surprise/stim/3_effect.mov 735 06-Mar-2018 10:08:02 4.282130e+02 2.844002e+02 1 0
12lc23_f26 7 27 22 45 -45 right 1 5.000000e-01 /Users/lab/Documents/surprise_project/surprise/stim/3_noeffect.mov 1184 06-Mar-2018 10:08:06 1.789158e+02 2.087247e+02 0 0
12lc23_f26 7 28 42 45 -45 right 1 5.000000e-01 /Users/lab/Documents/surprise_project/surprise/stim/6_effect.mov 1813 06-Mar-2018 10:08:22 3.168639e+02 -4.603431e+02 1 1
12lc23_f26 7 29 31 -45 45 left 1 5.000000e-01 /Users/lab/Documents/surprise_project/surprise/stim/4_noeffect.mov 715 06-Mar-2018 10:08:25 1.039492e+02 -2.173606e+02 0 0
12lc23_f26 7 30 7 -45 45 left 1 5.000000e-01 /Users/lab/Documents/surprise_project/surprise/stim/1_noeffect.mov 736 06-Mar-2018 10:08:28 4.048969e+01 2.932509e+02 1 0
12lc23_f26 7 31 24 -45 -45 left 1 5.000000e-01 /Users/lab/Documents/surprise_project/surprise/stim/3_noeffect.mov 403 06-Mar-2018 10:08:31 5.164488e+01 6.434110e+01 0 0
12lc23_f26 7 32 59 -45 45 left 1 5.000000e-01 /Users/lab/Documents/surprise_project/surprise/stim/8_effect.mov 1630 06-Mar-2018 10:08:53 3.199482e+02 -3.878884e+02 1 1
12lc23_f26 7 33 41 45 45 right 1 5.000000e-01 /Users/lab/Documents/surprise_project/surprise/stim/6_effect.mov 618 06-Mar-2018 10:08:56 -3.267164e+02 -8.174693e+01 1 0
12lc23_f26 7 34 62 45 -45 right 1 5.000000e-01 /Users/lab/Documents/surprise_project/surprise/stim/8_noeffect.mov 601 06-Mar-2018 10:08:59 -1.656219e+02 -5.563571e+01 0 0
12lc23_f26 7 35 6 45 -45 right 1 5.000000e-01 /Users/lab/Documents/surprise_project/surprise/stim/1_noeffect.mov 618 06-Mar-2018 10:09:02 -4.002220e+02 2.252623e+01 1 0
12lc23_f26 7 36 70 45 -45 right 1 5.000000e-01 /Users/lab/Documents/surprise_project/surprise/stim/9_noeffect.mov 529 06-Mar-2018 10:09:23 -4.322479e+02 -3.550272e+02 0 1
12lc23_f26 7 37 36 -45 -45 left 1 5.000000e-01 /Users/lab/Documents/surprise_project/surprise/stim/5_effect.mov 601 06-Mar-2018 10:09:26 1.171592e+02 8.916203e+00 1 0
12lc23_f26 7 38 16 -45 -45 left 1 5.000000e-01 /Users/lab/Documents/surprise_project/surprise/stim/2_noeffect.mov 568 06-Mar-2018 10:09:29 -2.440307e+02 -5.089537e+01 0 0
12lc23_f26 7 39 10 45 -45 right 1 5.000000e-01 /Users/lab/Documents/surprise_project/surprise/stim/2_effect.mov 635 06-Mar-2018 10:09:32 -4.861205e+01 4.643256e+02 1 0
12lc23_f26 7 40 57 45 45 right 1 5.000000e-01 /Users/lab/Documents/surprise_project/surprise/stim/8_effect.mov 1115 06-Mar-2018 10:09:53 -3.162310e+01 -1.490663e+01 1 1
12lc23_f26 7 41 34 45 -45 right 1 5.000000e-01 /Users/lab/Documents/surprise_project/surprise/stim/5_effect.mov 749 06-Mar-2018 10:09:56 -3.708879e+01 -2.491394e+02 1 0
12lc23_f26 7 42 14 45 -45 right 1 5.000000e-01 /Users/lab/Documents/surprise_project/surprise/stim/2_noeffect.mov 765 06-Mar-2018 10:10:00 -3.808254e+02 -2.025954e+02 0 0
12lc23_f26 7 43 45 45 45 right 1 5.000000e-01 /Users/lab/Documents/surprise_project/surprise/stim/6_noeffect.mov 752 06-Mar-2018 10:10:03 -2.060675e+02 -4.777957e+02 0 0
12lc23_f26 7 44 61 45 45 right 1 5.000000e-01 /Users/lab/Documents/surprise_project/surprise/stim/8_noeffect.mov 729 06-Mar-2018 10:10:24 2.946150e+02 1.434289e+02 0 1
12lc23_f26 7 45 26 45 -45 right 1 5.000000e-01 /Users/lab/Documents/surprise_project/surprise/stim/4_effect.mov 498 06-Mar-2018 10:10:26 -7.058772e+01 4.361448e+02 1 0
12lc23_f26 7 46 28 -45 -45 left 1 5.000000e-01 /Users/lab/Documents/surprise_project/surprise/stim/4_effect.mov 535 06-Mar-2018 10:10:29 -1.018235e+02 -3.585730e+01 1 0
12lc23_f26 7 47 37 45 45 right 1 5.000000e-01 /Users/lab/Documents/surprise_project/surprise/stim/5_noeffect.mov 390 06-Mar-2018 10:10:32 1.917353e+02 -4.737315e+02 0 0
12lc23_f26 7 48 43 -45 45 left 1 5.000000e-01 /Users/lab/Documents/surprise_project/surprise/stim/6_effect.mov 1582 06-Mar-2018 10:10:48 4.480160e+02 -5.759645e+01 1 1
12lc23_f26 7 49 48 -45 -45 left 1 5.000000e-01 /Users/lab/Documents/surprise_project/surprise/stim/6_noeffect.mov 718 06-Mar-2018 10:10:51 -1.274052e+02 2.058302e+02 0 0
12lc23_f26 7 50 20 -45 -45 left 1 5.000000e-01 /Users/lab/Documents/surprise_project/surprise/stim/3_effect.mov 1217 06-Mar-2018 10:10:55 2.682587e+02 1.956587e+02 1 0
12lc23_f26 7 51 46 45 -45 right 1 5.000000e-01 /Users/lab/Documents/surprise_project/surprise/stim/6_noeffect.mov 869 06-Mar-2018 10:10:58 2.159186e+02 -2.107532e+02 0 0
12lc23_f26 7 52 12 -45 -45 left 1 5.000000e-01 /Users/lab/Documents/surprise_project/surprise/stim/2_effect.mov 746 06-Mar-2018 10:11:23 3.147522e+02 2.198944e+02 1 1
12lc23_f26 7 53 69 45 45 right 1 5.000000e-01 /Users/lab/Documents/surprise_project/surprise/stim/9_noeffect.mov 456 06-Mar-2018 10:11:26 -1.218800e+02 7.470707e+01 0 0
12lc23_f26 7 54 72 -45 -45 left 1 5.000000e-01 /Users/lab/Documents/surprise_project/surprise/stim/9_noeffect.mov 618 06-Mar-2018 10:11:29 -3.316492e+02 4.529357e+02 0 0
12lc23_f26 7 55 53 45 45 right 1 5.000000e-01 /Users/lab/Documents/surprise_project/surprise/stim/7_noeffect.mov 477 06-Mar-2018 10:11:32 -4.946210e+02 2.088511e+02 0 0
12lc23_f26 7 56 40 -45 -45 left 1 5.000000e-01 /Users/lab/Documents/surprise_project/surprise/stim/5_noeffect.mov 780 06-Mar-2018 10:11:49 -3.734849e+02 -7.940178e+01 0 1
12lc23_f26 7 57 13 45 45 right 1 5.000000e-01 /Users/lab/Documents/surprise_project/surprise/stim/2_noeffect.mov 434 06-Mar-2018 10:11:52 3.681277e+02 2.035375e+02 0 0
12lc23_f26 7 58 15 -45 45 left 1 5.000000e-01 /Users/lab/Documents/surprise_project/surprise/stim/2_noeffect.mov 459 06-Mar-2018 10:11:54 -1.244043e+02 2.934591e+02 0 0
12lc23_f26 7 59 32 -45 -45 left 1 5.000000e-01 /Users/lab/Documents/surprise_project/surprise/stim/4_noeffect.mov 490 06-Mar-2018 10:11:57 4.281389e+02 -2.366308e+02 0 0
12lc23_f26 7 60 39 -45 45 left 1 5.000000e-01 /Users/lab/Documents/surprise_project/surprise/stim/5_noeffect.mov 764 06-Mar-2018 10:12:14 2.086165e+01 1.540803e+02 0 1
12lc23_f26 7 61 68 -45 -45 left 1 5.000000e-01 /Users/lab/Documents/surprise_project/surprise/stim/9_effect.mov 448 06-Mar-2018 10:12:17 4.068703e+02 -2.605730e+02 1 0
12lc23_f26 7 62 49 45 45 right 1 5.000000e-01 /Users/lab/Documents/surprise_project/surprise/stim/7_effect.mov 550 06-Mar-2018 10:12:20 2.258188e+02 3.745655e+02 1 0
12lc23_f26 7 63 17 45 45 right 1 5.000000e-01 /Users/lab/Documents/surprise_project/surprise/stim/3_effect.mov 473 06-Mar-2018 10:12:22 6.266603e+01 -3.735534e+02 1 0
12lc23_f26 7 64 36 -45 45 left 1 5.000000e-01 /Users/lab/Documents/surprise_project/surprise/stim/5_effect.mov 1629 06-Mar-2018 10:12:40 1.406420e+02 3.811553e+02 1 1
12lc23_f26 7 65 2 45 -45 right 1 5.000000e-01 /Users/lab/Documents/surprise_project/surprise/stim/1_effect.mov 1184 06-Mar-2018 10:12:44 -3.554869e+02 -3.937087e+01 1 0
12lc23_f26 7 66 63 -45 45 left 1 5.000000e-01 /Users/lab/Documents/surprise_project/surprise/stim/8_noeffect.mov 1065 06-Mar-2018 10:12:47 1.333308e+02 4.240879e+01 0 0
12lc23_f26 7 67 5 45 45 right 1 5.000000e-01 /Users/lab/Documents/surprise_project/surprise/stim/1_noeffect.mov 1032 06-Mar-2018 10:12:51 -2.082950e+02 3.744711e+02 1 0
12lc23_f26 7 68 60 -45 -45 left 1 5.000000e-01 /Users/lab/Documents/surprise_project/surprise/stim/8_effect.mov 1548 06-Mar-2018 10:13:13 -3.634868e+02 4.310006e+02 1 1
12lc23_f26 7 69 25 45 45 right 1 5.000000e-01 /Users/lab/Documents/surprise_project/surprise/stim/4_effect.mov 934 06-Mar-2018 10:13:16 4.938056e+02 4.091287e+02 1 0
12lc23_f26 7 70 1 45 45 right 1 5.000000e-01 /Users/lab/Documents/surprise_project/surprise/stim/1_effect.mov 533 06-Mar-2018 10:13:19 -2.043005e+02 -3.157777e+02 1 0
12lc23_f26 7 71 29 45 45 right 1 5.000000e-01 /Users/lab/Documents/surprise_project/surprise/stim/4_noeffect.mov 1117 06-Mar-2018 10:13:22 -7.578765e+01 2.630357e+02 0 0
12lc23_f26 7 72 21 45 45 right 1 5.000000e-01 /Users/lab/Documents/surprise_project/surprise/stim/3_noeffect.mov 566 06-Mar-2018 10:13:25 -2.073572e+02 2.591711e+02 0 0
