subject_name subjectNumber iTrial unshuffled_trial targetOrientation flankersOrientation response correct onscreen_stim_duration magicShows rt date time_of_day deltaX deltaY surpriseClip isClipTrial
35vn01_f20 257 1 19 -45 45 right 0 5.000000e-01 /Users/lab/Documents/surprise_project/surprise/stim/3_effect.mov 1850 23-Mar-2018 17:07:28 -2.956202e+02 3.042860e+02 1 1
35vn01_f20 257 2 72 -45 -45 right 0 5.000000e-01 /Users/lab/Documents/surprise_project/surprise/stim/9_noeffect.mov 2499 23-Mar-2018 17:07:33 1.721302e+02 3.497951e+02 0 0
35vn01_f20 257 3 20 -45 -45 left 1 5.000000e-01 /Users/lab/Documents/surprise_project/surprise/stim/3_effect.mov 1580 23-Mar-2018 17:07:37 2.203812e+02 3.488735e+02 1 0
35vn01_f20 257 4 14 45 -45 right 1 5.000000e-01 /Users/lab/Documents/surprise_project/surprise/stim/2_noeffect.mov 2030 23-Mar-2018 17:08:03 -2.798334e+02 -3.660433e+02 0 1
35vn01_f20 257 5 33 45 45 right 1 5.000000e-01 /Users/lab/Documents/surprise_project/surprise/stim/5_effect.mov 1149 23-Mar-2018 17:08:07 4.715866e+02 1.279646e+02 1 0
35vn01_f20 257 6 8 -45 -45 left 1 5.000000e-01 /Users/lab/Documents/surprise_project/surprise/stim/1_noeffect.mov 1469 23-Mar-2018 17:08:11 1.998176e+02 -9.739039e+01 1 0
35vn01_f20 257 7 59 -45 45 left 1 5.000000e-01 /Users/lab/Documents/surprise_project/surprise/stim/8_effect.mov 1084 23-Mar-2018 17:08:14 -3.350613e+02 2.361661e+02 1 0
35vn01_f20 257 8 67 -45 45 left 1 5.000000e-01 /Users/lab/Documents/surprise_project/surprise/stim/9_effect.mov 1679 23-Mar-2018 17:08:37 -1.715746e+02 -3.095191e+02 1 1
35vn01_f20 257 9 49 45 45 right 1 5.000000e-01 /Users/lab/Documents/surprise_project/surprise/stim/7_effect.mov 1084 23-Mar-2018 17:08:41 3.576782e+02 2.231589e+02 1 0
35vn01_f20 257 10 45 45 45 right 1 5.000000e-01 /Users/lab/Documents/surprise_project/surprise/stim/6_noeffect.mov 985 23-Mar-2018 17:08:44 -7.040839e+01 -1.239214e+02 0 0
35vn01_f20 257 11 53 45 45 right 1 5.000000e-01 /Users/lab/Documents/surprise_project/surprise/stim/7_noeffect.mov 1035 23-Mar-2018 17:08:47 1.316856e+02 3.670341e+02 0 0
35vn01_f20 257 12 40 -45 -45 left 1 5.000000e-01 /Users/lab/Documents/surprise_project/surprise/stim/5_noeffect.mov 1281 23-Mar-2018 17:09:05 -1.624781e+01 -2.272359e+02 0 1
35vn01_f20 257 13 66 45 -45 right 1 5.000000e-01 /Users/lab/Documents/surprise_project/surprise/stim/9_effect.mov 985 23-Mar-2018 17:09:08 3.885065e+02 -4.465453e+02 1 0
35vn01_f20 257 14 48 -45 -45 left 1 5.000000e-01 /Users/lab/Documents/surprise_project/surprise/stim/6_noeffect.mov 1018 23-Mar-2018 17:09:12 -1.131794e+02 -4.416314e+02 0 0
35vn01_f20 257 15 13 45 45 right 1 5.000000e-01 /Users/lab/Documents/surprise_project/surprise/stim/2_noeffect.mov 1052 23-Mar-2018 17:09:15 1.531060e+02 -1.176501e+02 0 0
35vn01_f20 257 16 12 -45 -45 left 1 5.000000e-01 /Users/lab/Documents/surprise_project/surprise/stim/2_effect.mov 1113 23-Mar-2018 17:09:41 -1.663341e+02 2.630711e+02 1 1
35vn01_f20 257 17 60 -45 -45 left 1 5.000000e-01 /Users/lab/Documents/surprise_project/surprise/stim/8_effect.mov 818 23-Mar-2018 17:09:44 -4.152655e+02 -8.020504e+01 1 0
35vn01_f20 257 18 62 45 -45 right 1 5.000000e-01 /Users/lab/Documents/surprise_project/surprise/stim/8_noeffect.mov 768 23-Mar-2018 17:09:47 -3.251839e+02 -2.376581e+02 0 0
35vn01_f20 257 19 70 45 -45 right 1 5.000000e-01 /Users/lab/Documents/surprise_project/surprise/stim/9_noeffect.mov 618 23-Mar-2018 17:09:50 -3.570378e+02 -1.476180e+02 0 0
35vn01_f20 257 20 2 45 -45 right 1 5.000000e-01 /Users/lab/Documents/surprise_project/surprise/stim/1_effect.mov 897 23-Mar-2018 17:10:16 -4.314421e+02 2.421213e+02 1 1
35vn01_f20 257 21 38 45 -45 right 1 5.000000e-01 /Users/lab/Documents/surprise_project/surprise/stim/5_noeffect.mov 801 23-Mar-2018 17:10:19 -2.112096e+02 3.990820e+02 0 0
35vn01_f20 257 22 68 -45 -45 left 1 5.000000e-01 /Users/lab/Documents/surprise_project/surprise/stim/9_effect.mov 833 23-Mar-2018 17:10:22 -3.562202e+02 2.839117e+02 1 0
35vn01_f20 257 23 51 -45 45 left 1 5.000000e-01 /Users/lab/Documents/surprise_project/surprise/stim/7_effect.mov 801 23-Mar-2018 17:10:26 -2.851859e+02 -2.643089e+02 1 0
35vn01_f20 257 24 55 -45 45 left 1 5.000000e-01 /Users/lab/Documents/surprise_project/surprise/stim/7_noeffect.mov 880 23-Mar-2018 17:10:45 2.332728e+02 2.411676e+02 0 1
35vn01_f20 257 25 28 -45 -45 left 1 5.000000e-01 /Users/lab/Documents/surprise_project/surprise/stim/4_effect.mov 949 23-Mar-2018 17:10:48 4.705388e+02 -4.996575e+02 1 0
35vn01_f20 257 26 32 -45 -45 left 1 5.000000e-01 /Users/lab/Documents/surprise_project/surprise/stim/4_noeffect.mov 817 23-Mar-2018 17:10:51 3.179390e+02 1.130345e+02 0 0
35vn01_f20 257 27 24 -45 -45 left 1 5.000000e-01 /Users/lab/Documents/surprise_project/surprise/stim/3_noeffect.mov 785 23-Mar-2018 17:10:55 -1.035866e+01 4.828996e+02 0 0
35vn01_f20 257 28 46 45 -45 right 1 5.000000e-01 /Users/lab/Documents/surprise_project/surprise/stim/6_noeffect.mov 931 23-Mar-2018 17:11:10 -3.086263e+02 2.605296e+01 0 1
35vn01_f20 257 29 30 45 -45 right 1 5.000000e-01 /Users/lab/Documents/surprise_project/surprise/stim/4_noeffect.mov 835 23-Mar-2018 17:11:13 4.285890e+02 1.700700e+02 0 0
35vn01_f20 257 30 26 45 -45 right 1 5.000000e-01 /Users/lab/Documents/surprise_project/surprise/stim/4_effect.mov 883 23-Mar-2018 17:11:16 -3.540165e+02 4.079270e+02 1 0
35vn01_f20 257 31 6 45 -45 right 1 5.000000e-01 /Users/lab/Documents/surprise_project/surprise/stim/1_noeffect.mov 735 23-Mar-2018 17:11:20 -2.640047e+02 4.965691e+02 1 0
35vn01_f20 257 32 21 45 45 right 1 5.000000e-01 /Users/lab/Documents/surprise_project/surprise/stim/3_noeffect.mov 897 23-Mar-2018 17:11:38 -1.182284e+02 1.457121e+02 0 1
35vn01_f20 257 33 10 45 -45 right 1 5.000000e-01 /Users/lab/Documents/surprise_project/surprise/stim/2_effect.mov 784 23-Mar-2018 17:11:41 6.324605e+01 -2.190753e+02 1 0
35vn01_f20 257 34 25 45 45 right 1 5.000000e-01 /Users/lab/Documents/surprise_project/surprise/stim/4_effect.mov 651 23-Mar-2018 17:11:44 -1.313534e+02 5.922644e+01 1 0
35vn01_f20 257 35 7 -45 45 left 1 5.000000e-01 /Users/lab/Documents/surprise_project/surprise/stim/1_noeffect.mov 701 23-Mar-2018 17:11:47 4.924350e+02 -8.574864e+01 1 0
35vn01_f20 257 36 1 45 45 right 1 5.000000e-01 /Users/lab/Documents/surprise_project/surprise/stim/1_effect.mov 1413 23-Mar-2018 17:12:13 -2.696462e+02 -2.076482e+02 1 1
35vn01_f20 257 37 31 -45 45 left 1 5.000000e-01 /Users/lab/Documents/surprise_project/surprise/stim/4_noeffect.mov 1216 23-Mar-2018 17:12:17 -4.773944e+02 2.079231e+02 0 0
35vn01_f20 257 38 41 45 45 right 1 5.000000e-01 /Users/lab/Documents/surprise_project/surprise/stim/6_effect.mov 816 23-Mar-2018 17:12:20 4.966222e+02 -2.091616e+02 1 0
35vn01_f20 257 39 50 45 -45 right 1 5.000000e-01 /Users/lab/Documents/surprise_project/surprise/stim/7_effect.mov 698 23-Mar-2018 17:12:23 2.819238e+01 3.029500e+02 1 0
35vn01_f20 257 40 61 45 45 right 1 5.000000e-01 /Users/lab/Documents/surprise_project/surprise/stim/8_noeffect.mov 933 23-Mar-2018 17:12:44 -1.050622e+01 -3.722718e+02 0 1
35vn01_f20 257 41 36 -45 45 left 1 5.000000e-01 /Users/lab/Documents/surprise_project/surprise/stim/5_effect.mov 1185 23-Mar-2018 17:12:48 -1.898211e+01 -2.283771e+02 1 0
35vn01_f20 257 42 47 -45 45 left 1 5.000000e-01 /Users/lab/Documents/surprise_project/surprise/stim/6_noeffect.mov 768 23-Mar-2018 17:12:51 -1.418584e+02 -1.418434e+02 0 0
35vn01_f20 257 43 54 45 -45 right 1 5.000000e-01 /Users/lab/Documents/surprise_project/surprise/stim/7_noeffect.mov 769 23-Mar-2018 17:12:54 -1.760093e+02 1.310941e+02 0 0
35vn01_f20 257 44 4 -45 -45 left 1 5.000000e-01 /Users/lab/Documents/surprise_project/surprise/stim/1_effect.mov 1081 23-Mar-2018 17:13:20 -3.974143e+02 -4.368723e+02 1 1
35vn01_f20 257 45 5 45 45 right 1 5.000000e-01 /Users/lab/Documents/surprise_project/surprise/stim/1_noeffect.mov 951 23-Mar-2018 17:13:23 -3.707979e+02 1.053815e+02 1 0
35vn01_f20 257 46 64 -45 -45 left 1 5.000000e-01 /Users/lab/Documents/surprise_project/surprise/stim/8_noeffect.mov 851 23-Mar-2018 17:13:27 3.846566e+01 -3.132437e+02 0 0
35vn01_f20 257 47 11 -45 45 left 1 5.000000e-01 /Users/lab/Documents/surprise_project/surprise/stim/2_effect.mov 682 23-Mar-2018 17:13:30 2.160614e+02 3.283435e+02 1 0
35vn01_f20 257 48 3 -45 45 left 1 5.000000e-01 /Users/lab/Documents/surprise_project/surprise/stim/1_effect.mov 1131 23-Mar-2018 17:13:55 3.499191e+02 -2.227562e+02 1 1
35vn01_f20 257 49 43 -45 45 left 1 5.000000e-01 /Users/lab/Documents/surprise_project/surprise/stim/6_effect.mov 734 23-Mar-2018 17:13:58 1.876740e+02 1.915926e+02 1 0
35vn01_f20 257 50 39 -45 45 left 1 5.000000e-01 /Users/lab/Documents/surprise_project/surprise/stim/5_noeffect.mov 733 23-Mar-2018 17:14:01 9.454825e+00 -3.878750e+02 0 0
35vn01_f20 257 51 57 45 45 right 1 5.000000e-01 /Users/lab/Documents/surprise_project/surprise/stim/8_effect.mov 683 23-Mar-2018 17:14:04 -3.708862e+02 3.037464e+02 1 0
35vn01_f20 257 52 58 45 -45 right 1 5.000000e-01 /Users/lab/Documents/surprise_project/surprise/stim/8_effect.mov 1047 23-Mar-2018 17:14:26 -1.367974e+02 -2.923407e+02 1 1
35vn01_f20 257 53 9 45 45 right 1 5.000000e-01 /Users/lab/Documents/surprise_project/surprise/stim/2_effect.mov 801 23-Mar-2018 17:14:29 -4.203825e+02 4.480246e+02 1 0
35vn01_f20 257 54 36 -45 -45 left 1 5.000000e-01 /Users/lab/Documents/surprise_project/surprise/stim/5_effect.mov 1150 23-Mar-2018 17:14:33 1.382651e+02 -4.379816e+02 1 0
35vn01_f20 257 55 44 -45 -45 left 1 5.000000e-01 /Users/lab/Documents/surprise_project/surprise/stim/6_effect.mov 901 23-Mar-2018 17:14:36 2.679905e+02 -1.862327e+02 1 0
35vn01_f20 257 56 65 45 45 right 1 5.000000e-01 /Users/lab/Documents/surprise_project/surprise/stim/9_effect.mov 1213 23-Mar-2018 17:14:58 -2.019330e+02 6.593764e+01 1 1
35vn01_f20 257 57 17 45 45 right 1 5.000000e-01 /Users/lab/Documents/surprise_project/surprise/stim/3_effect.mov 766 23-Mar-2018 17:15:02 -2.003017e+02 3.663809e+02 1 0
35vn01_f20 257 58 29 45 45 right 1 5.000000e-01 /Users/lab/Documents/surprise_project/surprise/stim/4_noeffect.mov 652 23-Mar-2018 17:15:05 -3.735105e+02 4.852910e+02 0 0
35vn01_f20 257 59 16 -45 -45 left 1 5.000000e-01 /Users/lab/Documents/surprise_project/surprise/stim/2_noeffect.mov 985 23-Mar-2018 17:15:08 4.188377e+02 -4.845411e+02 0 0
35vn01_f20 257 60 23 -45 45 left 1 5.000000e-01 /Users/lab/Documents/surprise_project/surprise/stim/3_noeffect.mov 1213 23-Mar-2018 17:15:37 -2.012416e+02 -2.729398e+02 0 1
35vn01_f20 257 61 42 45 -45 right 1 5.000000e-01 /Users/lab/Documents/surprise_project/surprise/stim/6_effect.mov 802 23-Mar-2018 17:15:40 4.279662e+02 2.068816e+02 1 0
35vn01_f20 257 62 63 -45 45 left 1 5.000000e-01 /Users/lab/Documents/surprise_project/surprise/stim/8_noeffect.mov 718 23-Mar-2018 17:15:43 1.427992e+02 3.013437e+02 0 0
35vn01_f20 257 63 22 45 -45 right 1 5.000000e-01 /Users/lab/Documents/surprise_project/surprise/stim/3_noeffect.mov 667 23-Mar-2018 17:15:46 1.668080e+02 -4.784698e+02 0 0
35vn01_f20 257 64 56 -45 -45 left 1 5.000000e-01 /Users/lab/Documents/surprise_project/surprise/stim/7_noeffect.mov 896 23-Mar-2018 17:16:06 -2.503870e+02 1.464596e+02 0 1
35vn01_f20 257 65 69 45 45 right 1 5.000000e-01 /Users/lab/Documents/surprise_project/surprise/stim/9_noeffect.mov 1135 23-Mar-2018 17:16:09 3.367288e+02 7.025072e+00 0 0
35vn01_f20 257 66 15 -45 45 left 1 5.000000e-01 /Users/lab/Documents/surprise_project/surprise/stim/2_noeffect.mov 715 23-Mar-2018 17:16:12 -3.185823e+02 -4.470095e+02 0 0
35vn01_f20 257 67 34 45 -45 right 1 5.000000e-01 /Users/lab/Documents/surprise_project/surprise/stim/5_effect.mov 750 23-Mar-2018 17:16:15 -4.764441e+02 -4.915833e+02 1 0
35vn01_f20 257 68 71 -45 45 left 1 5.000000e-01 /Users/lab/Documents/surprise_project/surprise/stim/9_noeffect.mov 979 23-Mar-2018 17:16:37 3.467863e+01 -1.646374e+02 0 1
35vn01_f20 257 69 37 45 45 right 1 5.000000e-01 /Users/lab/Documents/surprise_project/surprise/stim/5_noeffect.mov 768 23-Mar-2018 17:16:41 4.269558e+02 3.885526e+01 0 0
35vn01_f20 257 70 52 -45 -45 left 1 5.000000e-01 /Users/lab/Documents/surprise_project/surprise/stim/7_effect.mov 651 23-Mar-2018 17:16:44 -1.214045e+02 -3.055768e+01 1 0
35vn01_f20 257 71 27 -45 45 left 1 5.000000e-01 /Users/lab/Documents/surprise_project/surprise/stim/4_effect.mov 751 23-Mar-2018 17:16:47 3.257166e+02 -2.436376e+02 1 0
35vn01_f20 257 72 18 45 -45 right 1 5.000000e-01 /Users/lab/Documents/surprise_project/surprise/stim/3_effect.mov 619 23-Mar-2018 17:16:50 -3.199926e+02 -8.296740e+01 1 0
