subject_name subjectNumber iTrial unshuffled_trial targetOrientation flankersOrientation response correct onscreen_stim_duration magicShows rt date time_of_day deltaX deltaY surpriseClip isClipTrial
30ar15_m20 506 1 6 45 -45 left 0 5.000000e-01 /Users/lab/Documents/surprise_project/surprise/stim/1_noeffect.mov 659 13-Apr-2018 14:38:52 8.383649e+01 -2.337705e+02 1 1
30ar15_m20 506 2 11 -45 45 left 1 5.000000e-01 /Users/lab/Documents/surprise_project/surprise/stim/2_effect.mov 665 13-Apr-2018 14:38:55 1.734014e+02 7.360748e+01 1 0
30ar15_m20 506 3 31 -45 45 left 1 5.000000e-01 /Users/lab/Documents/surprise_project/surprise/stim/4_noeffect.mov 630 13-Apr-2018 14:38:58 -3.182248e+02 1.448962e+02 0 0
30ar15_m20 506 4 63 -45 45 left 1 5.000000e-01 /Users/lab/Documents/surprise_project/surprise/stim/8_noeffect.mov 829 13-Apr-2018 14:39:19 1.435005e+02 5.697352e+01 0 1
30ar15_m20 506 5 61 45 45 right 1 5.000000e-01 /Users/lab/Documents/surprise_project/surprise/stim/8_noeffect.mov 565 13-Apr-2018 14:39:22 8.285520e+01 -4.234859e+02 0 0
30ar15_m20 506 6 68 -45 -45 left 1 5.000000e-01 /Users/lab/Documents/surprise_project/surprise/stim/9_effect.mov 580 13-Apr-2018 14:39:25 -4.173099e+02 -3.273745e+02 1 0
30ar15_m20 506 7 16 -45 -45 left 1 5.000000e-01 /Users/lab/Documents/surprise_project/surprise/stim/2_noeffect.mov 478 13-Apr-2018 14:39:28 -7.009120e+01 3.205122e+02 0 0
30ar15_m20 506 8 39 -45 45 left 1 5.000000e-01 /Users/lab/Documents/surprise_project/surprise/stim/5_noeffect.mov 875 13-Apr-2018 14:39:45 -1.449411e+02 3.889312e+02 0 1
30ar15_m20 506 9 13 45 45 right 1 5.000000e-01 /Users/lab/Documents/surprise_project/surprise/stim/2_noeffect.mov 599 13-Apr-2018 14:39:48 1.552997e+02 4.356630e+02 0 0
30ar15_m20 506 10 3 -45 45 left 1 5.000000e-01 /Users/lab/Documents/surprise_project/surprise/stim/1_effect.mov 699 13-Apr-2018 14:39:51 4.336211e+02 -2.987966e+00 1 0
30ar15_m20 506 11 42 45 -45 right 1 5.000000e-01 /Users/lab/Documents/surprise_project/surprise/stim/6_effect.mov 599 13-Apr-2018 14:39:54 -4.176374e+02 2.510088e+01 1 0
30ar15_m20 506 12 47 -45 45 left 1 5.000000e-01 /Users/lab/Documents/surprise_project/surprise/stim/6_noeffect.mov 727 13-Apr-2018 14:40:08 2.029409e+01 6.088964e+01 0 1
30ar15_m20 506 13 44 -45 -45 left 1 5.000000e-01 /Users/lab/Documents/surprise_project/surprise/stim/6_effect.mov 532 13-Apr-2018 14:40:11 2.847148e+02 -3.228309e+02 1 0
30ar15_m20 506 14 67 -45 45 left 1 5.000000e-01 /Users/lab/Documents/surprise_project/surprise/stim/9_effect.mov 983 13-Apr-2018 14:40:15 4.501635e+02 -2.865966e+02 1 0
30ar15_m20 506 15 40 -45 -45 left 1 5.000000e-01 /Users/lab/Documents/surprise_project/surprise/stim/5_noeffect.mov 599 13-Apr-2018 14:40:18 -3.107491e+02 1.572833e+02 0 0
30ar15_m20 506 16 8 -45 -45 left 1 5.000000e-01 /Users/lab/Documents/surprise_project/surprise/stim/1_noeffect.mov 558 13-Apr-2018 14:40:42 1.495755e+02 -4.491366e+02 1 1
30ar15_m20 506 17 12 -45 -45 left 1 5.000000e-01 /Users/lab/Documents/surprise_project/surprise/stim/2_effect.mov 532 13-Apr-2018 14:40:45 -2.027253e+02 -3.581809e+02 1 0
30ar15_m20 506 18 50 45 -45 left 0 5.000000e-01 /Users/lab/Documents/surprise_project/surprise/stim/7_effect.mov 549 13-Apr-2018 14:40:48 -3.075745e+02 -3.712759e+02 1 0
30ar15_m20 506 19 60 -45 -45 left 1 5.000000e-01 /Users/lab/Documents/surprise_project/surprise/stim/8_effect.mov 816 13-Apr-2018 14:40:51 3.461838e+02 -4.214965e+02 1 0
30ar15_m20 506 20 45 45 45 right 1 5.000000e-01 /Users/lab/Documents/surprise_project/surprise/stim/6_noeffect.mov 695 13-Apr-2018 14:41:06 -2.926203e+01 4.072446e+02 0 1
30ar15_m20 506 21 48 -45 -45 left 1 5.000000e-01 /Users/lab/Documents/surprise_project/surprise/stim/6_noeffect.mov 442 13-Apr-2018 14:41:09 5.224780e+01 -1.141040e+02 0 0
30ar15_m20 506 22 27 -45 45 left 1 5.000000e-01 /Users/lab/Documents/surprise_project/surprise/stim/4_effect.mov 633 13-Apr-2018 14:41:12 -4.581442e+02 -2.173112e+02 1 0
30ar15_m20 506 23 46 45 -45 left 0 5.000000e-01 /Users/lab/Documents/surprise_project/surprise/stim/6_noeffect.mov 516 13-Apr-2018 14:41:15 4.627116e+02 -1.546491e+02 0 0
30ar15_m20 506 24 55 -45 45 left 1 5.000000e-01 /Users/lab/Documents/surprise_project/surprise/stim/7_noeffect.mov 886 13-Apr-2018 14:41:34 3.861874e+02 -2.691190e+02 0 1
30ar15_m20 506 25 58 45 -45 right 1 5.000000e-01 /Users/lab/Documents/surprise_project/surprise/stim/8_effect.mov 694 13-Apr-2018 14:41:37 9.827493e+01 -2.909171e+02 1 0
30ar15_m20 506 26 4 -45 -45 left 1 5.000000e-01 /Users/lab/Documents/surprise_project/surprise/stim/1_effect.mov 549 13-Apr-2018 14:41:40 6.294944e+01 -4.532570e+02 1 0
30ar15_m20 506 27 21 45 45 right 1 5.000000e-01 /Users/lab/Documents/surprise_project/surprise/stim/3_noeffect.mov 545 13-Apr-2018 14:41:43 -2.258420e+02 1.623537e+02 0 0
30ar15_m20 506 28 19 -45 45 left 1 5.000000e-01 /Users/lab/Documents/surprise_project/surprise/stim/3_effect.mov 944 13-Apr-2018 14:42:01 2.363308e+02 -2.999214e+02 1 1
30ar15_m20 506 29 41 45 45 right 1 5.000000e-01 /Users/lab/Documents/surprise_project/surprise/stim/6_effect.mov 550 13-Apr-2018 14:42:04 -3.765038e+02 2.170593e+02 1 0
30ar15_m20 506 30 14 45 -45 right 1 5.000000e-01 /Users/lab/Documents/surprise_project/surprise/stim/2_noeffect.mov 794 13-Apr-2018 14:42:07 3.922174e+02 3.270884e+02 0 0
30ar15_m20 506 31 65 45 45 right 1 5.000000e-01 /Users/lab/Documents/surprise_project/surprise/stim/9_effect.mov 594 13-Apr-2018 14:42:10 2.925340e+02 2.963563e+02 1 0
30ar15_m20 506 32 53 45 45 right 1 5.000000e-01 /Users/lab/Documents/surprise_project/surprise/stim/7_noeffect.mov 892 13-Apr-2018 14:42:29 -2.316339e+02 -1.788451e+02 0 1
30ar15_m20 506 33 20 -45 -45 left 1 5.000000e-01 /Users/lab/Documents/surprise_project/surprise/stim/3_effect.mov 512 13-Apr-2018 14:42:32 -3.063297e+02 -2.895869e+02 1 0
30ar15_m20 506 34 17 45 45 right 1 5.000000e-01 /Users/lab/Documents/surprise_project/surprise/stim/3_effect.mov 615 13-Apr-2018 14:42:35 -4.260746e+02 2.987491e+01 1 0
30ar15_m20 506 35 33 45 45 right 1 5.000000e-01 /Users/lab/Documents/surprise_project/surprise/stim/5_effect.mov 616 13-Apr-2018 14:42:38 1.349300e+02 -2.158809e+02 1 0
30ar15_m20 506 36 24 -45 -45 left 1 5.000000e-01 /Users/lab/Documents/surprise_project/surprise/stim/3_noeffect.mov 727 13-Apr-2018 14:42:56 -1.636112e+02 1.585724e+02 0 1
30ar15_m20 506 37 28 -45 -45 left 1 5.000000e-01 /Users/lab/Documents/surprise_project/surprise/stim/4_effect.mov 516 13-Apr-2018 14:42:59 -3.832928e+02 2.303393e+02 1 0
30ar15_m20 506 38 56 -45 -45 left 1 5.000000e-01 /Users/lab/Documents/surprise_project/surprise/stim/7_noeffect.mov 405 13-Apr-2018 14:43:02 -2.562903e+02 3.571796e+02 0 0
30ar15_m20 506 39 69 45 45 right 1 5.000000e-01 /Users/lab/Documents/surprise_project/surprise/stim/9_noeffect.mov 471 13-Apr-2018 14:43:05 -3.947594e+02 1.632612e+02 0 0
30ar15_m20 506 40 38 45 -45 right 1 5.000000e-01 /Users/lab/Documents/surprise_project/surprise/stim/5_noeffect.mov 775 13-Apr-2018 14:43:21 -4.596100e+02 -2.094024e+02 0 1
30ar15_m20 506 41 51 -45 45 left 1 5.000000e-01 /Users/lab/Documents/surprise_project/surprise/stim/7_effect.mov 750 13-Apr-2018 14:43:24 2.947299e+02 2.538224e+02 1 0
30ar15_m20 506 42 30 45 -45 right 1 5.000000e-01 /Users/lab/Documents/surprise_project/surprise/stim/4_noeffect.mov 813 13-Apr-2018 14:43:27 -2.768868e+02 4.565523e+02 0 0
30ar15_m20 506 43 18 45 -45 left 0 5.000000e-01 /Users/lab/Documents/surprise_project/surprise/stim/3_effect.mov 462 13-Apr-2018 14:43:30 2.425852e+00 -4.312855e+02 1 0
30ar15_m20 506 44 34 45 -45 NORESP 0 5.000000e-01 /Users/lab/Documents/surprise_project/surprise/stim/5_effect.mov 3012 13-Apr-2018 14:43:49 2.993096e+01 -4.038309e+02 1 1
30ar15_m20 506 45 70 45 -45 right 1 5.000000e-01 /Users/lab/Documents/surprise_project/surprise/stim/9_noeffect.mov 696 13-Apr-2018 14:43:52 -3.376327e+02 -3.058709e+01 0 0
30ar15_m20 506 46 71 -45 45 left 1 5.000000e-01 /Users/lab/Documents/surprise_project/surprise/stim/9_noeffect.mov 631 13-Apr-2018 14:43:55 7.342926e+01 -3.396527e+02 0 0
30ar15_m20 506 47 59 -45 45 left 1 5.000000e-01 /Users/lab/Documents/surprise_project/surprise/stim/8_effect.mov 529 13-Apr-2018 14:43:58 5.780558e-01 -1.994515e+02 1 0
30ar15_m20 506 48 10 45 -45 right 1 5.000000e-01 /Users/lab/Documents/surprise_project/surprise/stim/2_effect.mov 809 13-Apr-2018 14:44:23 4.156908e+01 1.046791e+02 1 1
30ar15_m20 506 49 7 -45 45 left 1 5.000000e-01 /Users/lab/Documents/surprise_project/surprise/stim/1_noeffect.mov 661 13-Apr-2018 14:44:26 -4.549811e+02 3.408170e+02 1 0
30ar15_m20 506 50 62 45 -45 right 1 5.000000e-01 /Users/lab/Documents/surprise_project/surprise/stim/8_noeffect.mov 662 13-Apr-2018 14:44:29 3.225733e+01 4.005584e+02 0 0
30ar15_m20 506 51 15 -45 45 left 1 5.000000e-01 /Users/lab/Documents/surprise_project/surprise/stim/2_noeffect.mov 596 13-Apr-2018 14:44:32 -3.481931e+02 -4.780155e+02 0 0
30ar15_m20 506 52 5 45 45 right 1 5.000000e-01 /Users/lab/Documents/surprise_project/surprise/stim/1_noeffect.mov 712 13-Apr-2018 14:44:57 -4.736555e+02 -3.823980e+02 1 1
30ar15_m20 506 53 2 45 -45 right 1 5.000000e-01 /Users/lab/Documents/surprise_project/surprise/stim/1_effect.mov 649 13-Apr-2018 14:45:00 -4.263161e+02 -1.920592e+02 1 0
30ar15_m20 506 54 52 -45 -45 left 1 5.000000e-01 /Users/lab/Documents/surprise_project/surprise/stim/7_effect.mov 485 13-Apr-2018 14:45:03 -3.217306e+02 3.703424e+02 1 0
30ar15_m20 506 55 49 45 45 right 1 5.000000e-01 /Users/lab/Documents/surprise_project/surprise/stim/7_effect.mov 477 13-Apr-2018 14:45:06 -1.766805e+02 -1.472241e+02 1 0
30ar15_m20 506 56 37 45 45 right 1 5.000000e-01 /Users/lab/Documents/surprise_project/surprise/stim/5_noeffect.mov 623 13-Apr-2018 14:45:22 -3.538756e+02 -1.878024e+02 0 1
30ar15_m20 506 57 22 45 -45 left 0 5.000000e-01 /Users/lab/Documents/surprise_project/surprise/stim/3_noeffect.mov 511 13-Apr-2018 14:45:25 -4.091696e+02 -4.269406e+01 0 0
30ar15_m20 506 58 25 45 45 right 1 5.000000e-01 /Users/lab/Documents/surprise_project/surprise/stim/4_effect.mov 548 13-Apr-2018 14:45:28 4.159842e+02 1.930720e+02 1 0
30ar15_m20 506 59 54 45 -45 right 1 5.000000e-01 /Users/lab/Documents/surprise_project/surprise/stim/7_noeffect.mov 648 13-Apr-2018 14:45:31 2.352466e+02 3.299970e+02 0 0
30ar15_m20 506 60 66 45 -45 right 1 5.000000e-01 /Users/lab/Documents/surprise_project/surprise/stim/9_effect.mov 879 13-Apr-2018 14:45:53 -4.647324e+02 -2.852911e+02 1 1
30ar15_m20 506 61 29 45 45 right 1 5.000000e-01 /Users/lab/Documents/surprise_project/surprise/stim/4_noeffect.mov 517 13-Apr-2018 14:45:55 -4.974436e+02 4.963896e+02 0 0
30ar15_m20 506 62 57 45 45 right 1 5.000000e-01 /Users/lab/Documents/surprise_project/surprise/stim/8_effect.mov 512 13-Apr-2018 14:45:58 -4.685334e+00 -1.207894e+02 1 0
30ar15_m20 506 63 43 -45 45 right 0 5.000000e-01 /Users/lab/Documents/surprise_project/surprise/stim/6_effect.mov 549 13-Apr-2018 14:46:01 -1.455313e+02 3.752363e+02 1 0
30ar15_m20 506 64 1 45 45 right 1 5.000000e-01 /Users/lab/Documents/surprise_project/surprise/stim/1_effect.mov 677 13-Apr-2018 14:46:26 1.660659e+02 4.968715e+02 1 1
30ar15_m20 506 65 32 -45 -45 left 1 5.000000e-01 /Users/lab/Documents/surprise_project/surprise/stim/4_noeffect.mov 697 13-Apr-2018 14:46:29 4.723236e+02 3.468933e+02 0 0
30ar15_m20 506 66 26 45 -45 right 1 5.000000e-01 /Users/lab/Documents/surprise_project/surprise/stim/4_effect.mov 648 13-Apr-2018 14:46:32 4.938057e+02 -4.272892e+02 1 0
30ar15_m20 506 67 9 45 45 right 1 5.000000e-01 /Users/lab/Documents/surprise_project/surprise/stim/2_effect.mov 583 13-Apr-2018 14:46:35 4.673275e+02 2.242140e+02 1 0
