subject_name subjectNumber iTrial unshuffled_trial targetOrientation flankersOrientation response correct onscreen_stim_duration magicShows rt date time_of_day deltaX deltaY surpriseClip isClipTrial
16AP04_F19 1 1 67 -45 45 left 1 5.000000e-01 /Users/lab/Documents/magic3Definitivo/stim/9_effect.mov 729 04-May-2017 14:02:18 7.045767e+01 2.564832e+02 1 1
16AP04_F19 1 2 50 45 -45 right 1 5.000000e-01 /Users/lab/Documents/magic3Definitivo/stim/7_effect.mov 728 04-May-2017 14:02:21 2.115954e+02 3.994950e+02 1 0
16AP04_F19 1 3 25 45 45 right 1 5.000000e-01 /Users/lab/Documents/magic3Definitivo/stim/4_effect.mov 545 04-May-2017 14:02:24 -1.751537e+02 -1.125069e+02 1 0
16AP04_F19 1 4 3 -45 45 left 1 5.000000e-01 /Users/lab/Documents/magic3Definitivo/stim/1_effect.mov 728 04-May-2017 14:02:49 1.169411e+02 -2.820762e+02 1 1
16AP04_F19 1 5 49 45 45 right 1 5.000000e-01 /Users/lab/Documents/magic3Definitivo/stim/7_effect.mov 438 04-May-2017 14:02:52 4.095325e+02 4.866467e+01 1 0
16AP04_F19 1 6 72 -45 -45 left 1 5.000000e-01 /Users/lab/Documents/magic3Definitivo/stim/9_noeffect.mov 844 04-May-2017 14:02:55 4.406072e+02 2.142386e+02 0 0
16AP04_F19 1 7 21 45 45 right 1 5.000000e-01 /Users/lab/Documents/magic3Definitivo/stim/3_noeffect.mov 544 04-May-2017 14:02:58 -8.060318e+01 3.952723e+02 0 0
16AP04_F19 1 8 59 -45 45 left 1 5.000000e-01 /Users/lab/Documents/magic3Definitivo/stim/8_effect.mov 878 04-May-2017 14:03:19 -3.063006e+02 -2.951483e+02 1 1
16AP04_F19 1 9 12 -45 -45 left 1 5.000000e-01 /Users/lab/Documents/magic3Definitivo/stim/2_effect.mov 507 04-May-2017 14:03:22 -1.446436e+02 -3.676047e+02 1 0
16AP04_F19 1 10 53 45 45 right 1 5.000000e-01 /Users/lab/Documents/magic3Definitivo/stim/7_noeffect.mov 487 04-May-2017 14:03:25 -1.562553e+02 -2.859986e+02 0 0
16AP04_F19 1 11 22 45 -45 left 0 5.000000e-01 /Users/lab/Documents/magic3Definitivo/stim/3_noeffect.mov 464 04-May-2017 14:03:28 -2.695705e+02 -2.215820e+02 0 0
16AP04_F19 1 12 20 -45 -45 left 1 5.000000e-01 /Users/lab/Documents/magic3Definitivo/stim/3_effect.mov 962 04-May-2017 14:03:47 2.908479e+02 1.122803e+01 1 1
16AP04_F19 1 13 70 45 -45 right 1 5.000000e-01 /Users/lab/Documents/magic3Definitivo/stim/9_noeffect.mov 678 04-May-2017 14:03:50 2.486311e+02 -4.366943e+02 0 0
16AP04_F19 1 14 71 -45 45 left 1 5.000000e-01 /Users/lab/Documents/magic3Definitivo/stim/9_noeffect.mov 911 04-May-2017 14:03:53 -1.400539e+02 -1.424047e+02 0 0
16AP04_F19 1 15 31 -45 45 right 0 5.000000e-01 /Users/lab/Documents/magic3Definitivo/stim/4_noeffect.mov 777 04-May-2017 14:03:56 -1.289591e+02 -1.562744e+02 0 0
16AP04_F19 1 16 56 -45 -45 left 1 5.000000e-01 /Users/lab/Documents/magic3Definitivo/stim/7_noeffect.mov 696 04-May-2017 14:04:15 2.347998e+02 4.768894e+02 0 1
16AP04_F19 1 17 28 -45 -45 left 1 5.000000e-01 /Users/lab/Documents/magic3Definitivo/stim/4_effect.mov 571 04-May-2017 14:04:18 4.401803e+02 4.580532e+01 1 0
16AP04_F19 1 18 57 45 45 right 1 5.000000e-01 /Users/lab/Documents/magic3Definitivo/stim/8_effect.mov 678 04-May-2017 14:04:21 3.220775e+02 -1.220800e+02 1 0
16AP04_F19 1 19 48 -45 -45 left 1 5.000000e-01 /Users/lab/Documents/magic3Definitivo/stim/6_noeffect.mov 579 04-May-2017 14:04:24 -3.842667e+02 -1.450076e+02 0 0
16AP04_F19 1 20 62 45 -45 right 1 5.000000e-01 /Users/lab/Documents/magic3Definitivo/stim/8_noeffect.mov 810 04-May-2017 14:04:45 3.894182e+02 -4.669466e+02 0 1
16AP04_F19 1 21 4 -45 -45 left 1 5.000000e-01 /Users/lab/Documents/magic3Definitivo/stim/1_effect.mov 679 04-May-2017 14:04:48 1.264724e+02 -2.925571e+02 1 0
16AP04_F19 1 22 52 -45 -45 left 1 5.000000e-01 /Users/lab/Documents/magic3Definitivo/stim/7_effect.mov 485 04-May-2017 14:04:51 -1.956174e+02 -1.443002e+02 1 0
16AP04_F19 1 23 43 -45 45 left 1 5.000000e-01 /Users/lab/Documents/magic3Definitivo/stim/6_effect.mov 628 04-May-2017 14:04:54 9.585980e+01 2.633399e+02 1 0
16AP04_F19 1 24 33 45 45 right 1 5.000000e-01 /Users/lab/Documents/magic3Definitivo/stim/5_effect.mov 695 04-May-2017 14:05:11 3.367753e+02 -2.639142e+02 1 1
16AP04_F19 1 25 9 45 45 right 1 5.000000e-01 /Users/lab/Documents/magic3Definitivo/stim/2_effect.mov 545 04-May-2017 14:05:13 4.305461e+02 -2.225745e+02 1 0
16AP04_F19 1 26 74 45 -45 right 1 5.000000e-01 /Users/lab/Documents/magic3Definitivo/stim/10_effect.mov 528 04-May-2017 14:05:16 8.462046e+01 -2.990709e+02 1 0
16AP04_F19 1 27 41 45 45 right 1 5.000000e-01 /Users/lab/Documents/magic3Definitivo/stim/6_effect.mov 546 04-May-2017 14:05:19 -1.188923e+02 4.303035e+02 1 0
16AP04_F19 1 28 8 -45 -45 left 1 5.000000e-01 /Users/lab/Documents/magic3Definitivo/stim/1_noeffect.mov 499 04-May-2017 14:05:44 3.826133e+02 -3.878942e+02 1 1
16AP04_F19 1 29 26 45 -45 right 1 5.000000e-01 /Users/lab/Documents/magic3Definitivo/stim/4_effect.mov 646 04-May-2017 14:05:47 -3.004687e+01 3.294497e+02 1 0
16AP04_F19 1 30 38 45 -45 right 1 5.000000e-01 /Users/lab/Documents/magic3Definitivo/stim/5_noeffect.mov 528 04-May-2017 14:05:50 2.109354e+02 -1.857923e+02 0 0
16AP04_F19 1 31 66 45 -45 right 1 5.000000e-01 /Users/lab/Documents/magic3Definitivo/stim/9_effect.mov 579 04-May-2017 14:05:52 3.272700e+02 3.107831e+02 1 0
16AP04_F19 1 32 36 -45 -45 left 1 5.000000e-01 /Users/lab/Documents/magic3Definitivo/stim/5_effect.mov 911 04-May-2017 14:06:09 -2.901149e+01 -4.266907e+02 1 1
16AP04_F19 1 33 19 -45 45 left 1 5.000000e-01 /Users/lab/Documents/magic3Definitivo/stim/3_effect.mov 673 04-May-2017 14:06:13 -4.208606e+02 -4.885576e+02 1 0
16AP04_F19 1 34 75 -45 45 left 1 5.000000e-01 /Users/lab/Documents/magic3Definitivo/stim/10_effect.mov 711 04-May-2017 14:06:16 1.535508e+02 4.705170e+02 1 0
16AP04_F19 1 35 78 45 -45 right 1 5.000000e-01 /Users/lab/Documents/magic3Definitivo/stim/10_noeffect.mov 612 04-May-2017 14:06:19 -3.851022e+02 2.800563e+02 0 0
16AP04_F19 1 36 40 -45 -45 left 1 5.000000e-01 /Users/lab/Documents/magic3Definitivo/stim/5_noeffect.mov 675 04-May-2017 14:06:35 -1.651121e+02 9.857254e+01 0 1
16AP04_F19 1 37 37 45 45 right 1 5.000000e-01 /Users/lab/Documents/magic3Definitivo/stim/5_noeffect.mov 506 04-May-2017 14:06:38 -3.574458e+02 -4.624744e+02 0 0
16AP04_F19 1 38 14 45 -45 right 1 5.000000e-01 /Users/lab/Documents/magic3Definitivo/stim/2_noeffect.mov 594 04-May-2017 14:06:41 -2.663444e+02 -1.613764e+02 0 0
16AP04_F19 1 39 55 -45 45 left 1 5.000000e-01 /Users/lab/Documents/magic3Definitivo/stim/7_noeffect.mov 595 04-May-2017 14:06:44 3.577103e+02 -1.660885e+02 0 0
16AP04_F19 1 40 34 45 -45 right 1 5.000000e-01 /Users/lab/Documents/magic3Definitivo/stim/5_effect.mov 727 04-May-2017 14:07:01 1.043079e+02 -2.883704e+02 1 1
16AP04_F19 1 41 23 -45 45 left 1 5.000000e-01 /Users/lab/Documents/magic3Definitivo/stim/3_noeffect.mov 662 04-May-2017 14:07:04 -4.145763e+00 3.639555e+02 0 0
16AP04_F19 1 42 7 -45 45 right 0 5.000000e-01 /Users/lab/Documents/magic3Definitivo/stim/1_noeffect.mov 562 04-May-2017 14:07:07 -5.650746e+01 2.443900e+02 1 0
16AP04_F19 1 43 77 45 45 right 1 5.000000e-01 /Users/lab/Documents/magic3Definitivo/stim/10_noeffect.mov 596 04-May-2017 14:07:10 -3.372143e+02 -2.983408e+02 0 0
16AP04_F19 1 44 36 -45 45 left 1 5.000000e-01 /Users/lab/Documents/magic3Definitivo/stim/5_effect.mov 743 04-May-2017 14:07:26 1.771251e+02 3.936405e+02 1 1
16AP04_F19 1 45 10 45 -45 right 1 5.000000e-01 /Users/lab/Documents/magic3Definitivo/stim/2_effect.mov 646 04-May-2017 14:07:29 -4.571381e+02 1.816443e+02 1 0
16AP04_F19 1 46 68 -45 -45 left 1 5.000000e-01 /Users/lab/Documents/magic3Definitivo/stim/9_effect.mov 544 04-May-2017 14:07:32 2.388630e+02 -4.680350e+02 1 0
16AP04_F19 1 47 73 45 45 right 1 5.000000e-01 /Users/lab/Documents/magic3Definitivo/stim/10_effect.mov 695 04-May-2017 14:07:35 -1.950823e+02 1.307102e+02 1 0
16AP04_F19 1 48 16 -45 -45 left 1 5.000000e-01 /Users/lab/Documents/magic3Definitivo/stim/2_noeffect.mov 659 04-May-2017 14:08:00 3.611400e+01 -5.216501e+01 0 1
16AP04_F19 1 49 79 -45 45 left 1 5.000000e-01 /Users/lab/Documents/magic3Definitivo/stim/10_noeffect.mov 794 04-May-2017 14:08:03 1.891525e+02 2.863044e+00 0 0
16AP04_F19 1 50 29 45 45 right 1 5.000000e-01 /Users/lab/Documents/magic3Definitivo/stim/4_noeffect.mov 528 04-May-2017 14:08:06 -4.190279e+02 3.795470e+02 0 0
16AP04_F19 1 51 60 -45 -45 left 1 5.000000e-01 /Users/lab/Documents/magic3Definitivo/stim/8_effect.mov 661 04-May-2017 14:08:09 -4.982760e+02 2.133334e+02 1 0
16AP04_F19 1 52 64 -45 -45 left 1 5.000000e-01 /Users/lab/Documents/magic3Definitivo/stim/8_noeffect.mov 711 04-May-2017 14:08:30 -3.378959e+02 -1.162166e+02 0 1
16AP04_F19 1 53 42 45 -45 right 1 5.000000e-01 /Users/lab/Documents/magic3Definitivo/stim/6_effect.mov 571 04-May-2017 14:08:33 -3.827666e+02 -2.075756e+02 1 0
16AP04_F19 1 54 18 45 -45 right 1 5.000000e-01 /Users/lab/Documents/magic3Definitivo/stim/3_effect.mov 644 04-May-2017 14:08:36 2.002672e+02 -4.748177e+02 1 0
16AP04_F19 1 55 13 45 45 right 1 5.000000e-01 /Users/lab/Documents/magic3Definitivo/stim/2_noeffect.mov 595 04-May-2017 14:08:39 3.334147e+02 6.080628e+01 0 0
16AP04_F19 1 56 45 45 45 right 1 5.000000e-01 /Users/lab/Documents/magic3Definitivo/stim/6_noeffect.mov 944 04-May-2017 14:08:54 2.413062e+02 -8.455651e+01 0 1
16AP04_F19 1 57 5 45 45 right 1 5.000000e-01 /Users/lab/Documents/magic3Definitivo/stim/1_noeffect.mov 662 04-May-2017 14:08:57 3.619019e+02 1.592257e+02 1 0
16AP04_F19 1 58 44 -45 -45 left 1 5.000000e-01 /Users/lab/Documents/magic3Definitivo/stim/6_effect.mov 496 04-May-2017 14:09:00 -2.767942e+01 -3.214133e+01 1 0
16AP04_F19 1 59 46 45 -45 right 1 5.000000e-01 /Users/lab/Documents/magic3Definitivo/stim/6_noeffect.mov 605 04-May-2017 14:09:03 -3.803923e+02 7.538007e+01 0 0
16AP04_F19 1 60 39 -45 45 left 1 5.000000e-01 /Users/lab/Documents/magic3Definitivo/stim/5_noeffect.mov 760 04-May-2017 14:09:19 2.918545e+01 4.717464e+02 0 1
16AP04_F19 1 61 15 -45 45 left 1 5.000000e-01 /Users/lab/Documents/magic3Definitivo/stim/2_noeffect.mov 679 04-May-2017 14:09:22 2.532442e+02 1.875684e+02 0 0
16AP04_F19 1 62 54 45 -45 right 1 5.000000e-01 /Users/lab/Documents/magic3Definitivo/stim/7_noeffect.mov 711 04-May-2017 14:09:25 -2.908206e+02 1.955344e+02 0 0
16AP04_F19 1 63 69 45 45 right 1 5.000000e-01 /Users/lab/Documents/magic3Definitivo/stim/9_noeffect.mov 571 04-May-2017 14:09:28 -4.968460e+02 2.607676e+02 0 0
16AP04_F19 1 64 63 -45 45 left 1 5.000000e-01 /Users/lab/Documents/magic3Definitivo/stim/8_noeffect.mov 593 04-May-2017 14:09:49 2.245598e+01 -1.137980e+02 0 1
16AP04_F19 1 65 51 -45 45 left 1 5.000000e-01 /Users/lab/Documents/magic3Definitivo/stim/7_effect.mov 646 04-May-2017 14:09:52 -1.847117e+02 -1.722191e+01 1 0
16AP04_F19 1 66 24 -45 -45 left 1 5.000000e-01 /Users/lab/Documents/magic3Definitivo/stim/3_noeffect.mov 441 04-May-2017 14:09:55 -3.293360e+02 3.500605e+02 0 0
16AP04_F19 1 67 1 45 45 right 1 5.000000e-01 /Users/lab/Documents/magic3Definitivo/stim/1_effect.mov 472 04-May-2017 14:09:58 2.282354e+02 -1.694621e+02 1 0
16AP04_F19 1 68 6 45 -45 right 1 5.000000e-01 /Users/lab/Documents/magic3Definitivo/stim/1_noeffect.mov 728 04-May-2017 14:10:22 -3.254040e+02 3.865481e+02 1 1
16AP04_F19 1 69 58 45 -45 right 1 5.000000e-01 /Users/lab/Documents/magic3Definitivo/stim/8_effect.mov 679 04-May-2017 14:10:25 -1.409546e+02 -3.982877e+02 1 0
16AP04_F19 1 70 76 -45 -45 left 1 5.000000e-01 /Users/lab/Documents/magic3Definitivo/stim/10_effect.mov 511 04-May-2017 14:10:28 -2.083343e+02 -1.982569e+01 1 0
16AP04_F19 1 71 80 -45 -45 left 1 5.000000e-01 /Users/lab/Documents/magic3Definitivo/stim/10_noeffect.mov 578 04-May-2017 14:10:31 4.627697e+02 -3.755451e+02 0 0
16AP04_F19 1 72 2 45 -45 right 1 5.000000e-01 /Users/lab/Documents/magic3Definitivo/stim/1_effect.mov 894 04-May-2017 14:10:56 3.377705e+02 -2.166302e+02 1 1
16AP04_F19 1 73 32 -45 -45 left 1 5.000000e-01 /Users/lab/Documents/magic3Definitivo/stim/4_noeffect.mov 695 04-May-2017 14:10:59 3.678144e+02 6.843033e+01 0 0
16AP04_F19 1 74 30 45 -45 right 1 5.000000e-01 /Users/lab/Documents/magic3Definitivo/stim/4_noeffect.mov 628 04-May-2017 14:11:02 4.937496e+02 -4.098734e+02 0 0
16AP04_F19 1 75 17 45 45 right 1 5.000000e-01 /Users/lab/Documents/magic3Definitivo/stim/3_effect.mov 529 04-May-2017 14:11:05 4.886587e+02 1.315060e+02 1 0
16AP04_F19 1 76 47 -45 45 left 1 5.000000e-01 /Users/lab/Documents/magic3Definitivo/stim/6_noeffect.mov 661 04-May-2017 14:11:20 1.551534e+01 -8.684549e+01 0 1
16AP04_F19 1 77 11 -45 45 left 1 5.000000e-01 /Users/lab/Documents/magic3Definitivo/stim/2_effect.mov 695 04-May-2017 14:11:23 1.601743e+02 -5.447924e+01 1 0
16AP04_F19 1 78 65 45 45 right 1 5.000000e-01 /Users/lab/Documents/magic3Definitivo/stim/9_effect.mov 594 04-May-2017 14:11:26 3.065871e+02 -4.385241e+02 1 0
16AP04_F19 1 79 27 -45 45 left 1 5.000000e-01 /Users/lab/Documents/magic3Definitivo/stim/4_effect.mov 561 04-May-2017 14:11:29 -4.763318e+01 7.683992e+01 1 0
16AP04_F19 1 80 61 45 45 right 1 5.000000e-01 /Users/lab/Documents/magic3Definitivo/stim/8_noeffect.mov 498 04-May-2017 14:11:32 1.374761e+02 -2.243551e+02 0 0
