subject_name subjectNumber iTrial unshuffled_trial targetOrientation flankersOrientation response correct onscreen_stim_duration magicShows rt date time_of_day deltaX deltaY surpriseClip isClipTrial
95av13_m19 184 1 13 45 45 right 1 5.000000e-01 /Users/lab/Documents/surprise_project/surprise/stim/2_noeffect.mov 2267 22-Mar-2018 11:08:49 -1.404509e+02 1.510539e+02 0 1
95av13_m19 184 2 10 45 -45 right 1 5.000000e-01 /Users/lab/Documents/surprise_project/surprise/stim/2_effect.mov 1663 22-Mar-2018 11:08:53 -1.235592e+02 -3.076063e+02 1 0
95av13_m19 184 3 56 -45 -45 left 1 5.000000e-01 /Users/lab/Documents/surprise_project/surprise/stim/7_noeffect.mov 1952 22-Mar-2018 11:08:57 -8.458707e+01 4.255622e+02 0 0
95av13_m19 184 4 43 -45 45 left 1 5.000000e-01 /Users/lab/Documents/surprise_project/surprise/stim/6_effect.mov 1645 22-Mar-2018 11:09:13 3.949220e+01 8.681148e+01 1 1
95av13_m19 184 5 27 -45 45 left 1 5.000000e-01 /Users/lab/Documents/surprise_project/surprise/stim/4_effect.mov 1348 22-Mar-2018 11:09:17 -5.832058e+01 -1.774057e+02 1 0
95av13_m19 184 6 28 -45 -45 left 1 5.000000e-01 /Users/lab/Documents/surprise_project/surprise/stim/4_effect.mov 1764 22-Mar-2018 11:09:21 -2.223430e+02 -4.267023e+02 1 0
95av13_m19 184 7 37 45 45 right 1 5.000000e-01 /Users/lab/Documents/surprise_project/surprise/stim/5_noeffect.mov 1299 22-Mar-2018 11:09:25 3.009192e-01 -1.079951e+02 0 0
95av13_m19 184 8 66 45 -45 right 1 5.000000e-01 /Users/lab/Documents/surprise_project/surprise/stim/9_effect.mov 1547 22-Mar-2018 11:09:47 1.907533e+02 4.906233e+02 1 1
95av13_m19 184 9 25 45 45 right 1 5.000000e-01 /Users/lab/Documents/surprise_project/surprise/stim/4_effect.mov 1217 22-Mar-2018 11:09:51 2.995100e+02 4.104276e+02 1 0
95av13_m19 184 10 11 -45 45 left 1 5.000000e-01 /Users/lab/Documents/surprise_project/surprise/stim/2_effect.mov 1315 22-Mar-2018 11:09:54 -4.574812e+02 2.290239e+02 1 0
95av13_m19 184 11 40 -45 -45 left 1 5.000000e-01 /Users/lab/Documents/surprise_project/surprise/stim/5_noeffect.mov 1866 22-Mar-2018 11:09:58 -2.956748e+02 3.568350e+01 0 0
95av13_m19 184 12 23 -45 45 left 1 5.000000e-01 /Users/lab/Documents/surprise_project/surprise/stim/3_noeffect.mov 1263 22-Mar-2018 11:10:17 1.824523e+02 1.121590e+02 0 1
95av13_m19 184 13 42 45 -45 right 1 5.000000e-01 /Users/lab/Documents/surprise_project/surprise/stim/6_effect.mov 1299 22-Mar-2018 11:10:21 2.332400e+02 -4.601832e+02 1 0
95av13_m19 184 14 54 45 -45 right 1 5.000000e-01 /Users/lab/Documents/surprise_project/surprise/stim/7_noeffect.mov 1148 22-Mar-2018 11:10:24 4.997662e+01 -8.712366e+01 0 0
95av13_m19 184 15 33 45 45 right 1 5.000000e-01 /Users/lab/Documents/surprise_project/surprise/stim/5_effect.mov 1531 22-Mar-2018 11:10:28 2.703360e+02 -2.499566e+02 1 0
95av13_m19 184 16 39 -45 45 left 1 5.000000e-01 /Users/lab/Documents/surprise_project/surprise/stim/5_noeffect.mov 1263 22-Mar-2018 11:10:45 2.700194e+01 8.411003e+01 0 1
95av13_m19 184 17 5 45 45 right 1 5.000000e-01 /Users/lab/Documents/surprise_project/surprise/stim/1_noeffect.mov 1216 22-Mar-2018 11:10:49 4.565711e+02 1.580605e+02 1 0
95av13_m19 184 18 61 45 45 right 1 5.000000e-01 /Users/lab/Documents/surprise_project/surprise/stim/8_noeffect.mov 1333 22-Mar-2018 11:10:52 -3.513098e+02 -2.137291e+02 0 0
95av13_m19 184 19 1 45 45 right 1 5.000000e-01 /Users/lab/Documents/surprise_project/surprise/stim/1_effect.mov 1214 22-Mar-2018 11:10:56 -4.386839e+02 4.101090e+02 1 0
95av13_m19 184 20 18 45 -45 right 1 5.000000e-01 /Users/lab/Documents/surprise_project/surprise/stim/3_effect.mov 1463 22-Mar-2018 11:11:15 3.201399e+02 -1.249634e+02 1 1
95av13_m19 184 21 59 -45 45 left 1 5.000000e-01 /Users/lab/Documents/surprise_project/surprise/stim/8_effect.mov 1298 22-Mar-2018 11:11:18 2.285485e+02 1.450656e+02 1 0
95av13_m19 184 22 51 -45 45 left 1 5.000000e-01 /Users/lab/Documents/surprise_project/surprise/stim/7_effect.mov 1299 22-Mar-2018 11:11:22 4.910774e+02 -4.115807e+02 1 0
95av13_m19 184 23 50 45 -45 right 1 5.000000e-01 /Users/lab/Documents/surprise_project/surprise/stim/7_effect.mov 1032 22-Mar-2018 11:11:25 1.664064e+02 -2.351966e+02 1 0
95av13_m19 184 24 36 -45 -45 left 1 5.000000e-01 /Users/lab/Documents/surprise_project/surprise/stim/5_effect.mov 1680 22-Mar-2018 11:11:43 -3.129109e+02 -3.912552e+02 1 1
95av13_m19 184 25 3 -45 45 left 1 5.000000e-01 /Users/lab/Documents/surprise_project/surprise/stim/1_effect.mov 1284 22-Mar-2018 11:11:47 4.633807e+02 3.197813e+02 1 0
95av13_m19 184 26 4 -45 -45 left 1 5.000000e-01 /Users/lab/Documents/surprise_project/surprise/stim/1_effect.mov 1465 22-Mar-2018 11:11:51 -3.076235e+02 3.368756e+00 1 0
95av13_m19 184 27 22 45 -45 right 1 5.000000e-01 /Users/lab/Documents/surprise_project/surprise/stim/3_noeffect.mov 1214 22-Mar-2018 11:11:54 3.846196e+02 1.850560e+02 0 0
95av13_m19 184 28 58 45 -45 left 0 5.000000e-01 /Users/lab/Documents/surprise_project/surprise/stim/8_effect.mov 1982 22-Mar-2018 11:12:16 4.976800e+02 -4.007254e+02 1 1
95av13_m19 184 29 9 45 45 right 1 5.000000e-01 /Users/lab/Documents/surprise_project/surprise/stim/2_effect.mov 1198 22-Mar-2018 11:12:20 4.750268e+02 4.078301e+02 1 0
95av13_m19 184 30 14 45 -45 right 1 5.000000e-01 /Users/lab/Documents/surprise_project/surprise/stim/2_noeffect.mov 1032 22-Mar-2018 11:12:23 -1.494385e+02 3.097935e+02 0 0
95av13_m19 184 31 38 45 -45 right 1 5.000000e-01 /Users/lab/Documents/surprise_project/surprise/stim/5_noeffect.mov 1232 22-Mar-2018 11:12:27 2.216354e+02 1.651649e+01 0 0
95av13_m19 184 32 8 -45 -45 left 1 5.000000e-01 /Users/lab/Documents/surprise_project/surprise/stim/1_noeffect.mov 1315 22-Mar-2018 11:12:52 2.831228e+02 4.648204e+02 1 1
95av13_m19 184 33 71 -45 45 left 1 5.000000e-01 /Users/lab/Documents/surprise_project/surprise/stim/9_noeffect.mov 1032 22-Mar-2018 11:12:55 2.833480e+02 3.620921e+02 0 0
95av13_m19 184 34 41 45 45 right 1 5.000000e-01 /Users/lab/Documents/surprise_project/surprise/stim/6_effect.mov 1299 22-Mar-2018 11:12:59 -4.307663e+02 -1.417357e+02 1 0
95av13_m19 184 35 31 -45 45 left 1 5.000000e-01 /Users/lab/Documents/surprise_project/surprise/stim/4_noeffect.mov 1182 22-Mar-2018 11:13:02 -4.687791e+02 4.075563e+02 0 0
95av13_m19 184 36 69 45 45 right 1 5.000000e-01 /Users/lab/Documents/surprise_project/surprise/stim/9_noeffect.mov 1380 22-Mar-2018 11:13:25 -1.440927e+02 1.109947e+02 0 1
95av13_m19 184 37 26 45 -45 right 1 5.000000e-01 /Users/lab/Documents/surprise_project/surprise/stim/4_effect.mov 1216 22-Mar-2018 11:13:28 -9.410675e+01 1.230969e+02 1 0
95av13_m19 184 38 70 45 -45 right 1 5.000000e-01 /Users/lab/Documents/surprise_project/surprise/stim/9_noeffect.mov 1434 22-Mar-2018 11:13:32 4.530428e+02 -3.107728e+01 0 0
95av13_m19 184 39 16 -45 -45 left 1 5.000000e-01 /Users/lab/Documents/surprise_project/surprise/stim/2_noeffect.mov 1215 22-Mar-2018 11:13:36 3.454406e+02 2.518737e+02 0 0
95av13_m19 184 40 64 -45 -45 left 1 5.000000e-01 /Users/lab/Documents/surprise_project/surprise/stim/8_noeffect.mov 1314 22-Mar-2018 11:13:57 -3.149303e+02 3.376998e+02 0 1
95av13_m19 184 41 12 -45 -45 left 1 5.000000e-01 /Users/lab/Documents/surprise_project/surprise/stim/2_effect.mov 1332 22-Mar-2018 11:14:01 -8.344061e+01 -4.681466e+02 1 0
95av13_m19 184 42 29 45 45 right 1 5.000000e-01 /Users/lab/Documents/surprise_project/surprise/stim/4_noeffect.mov 1064 22-Mar-2018 11:14:04 -2.084547e+02 2.919716e+02 0 0
95av13_m19 184 43 34 45 -45 right 1 5.000000e-01 /Users/lab/Documents/surprise_project/surprise/stim/5_effect.mov 1099 22-Mar-2018 11:14:08 2.512469e+02 -2.804035e+02 1 0
95av13_m19 184 44 36 -45 45 left 1 5.000000e-01 /Users/lab/Documents/surprise_project/surprise/stim/5_effect.mov 1245 22-Mar-2018 11:14:25 -2.708704e+02 -1.489289e+01 1 1
95av13_m19 184 45 47 -45 45 left 1 5.000000e-01 /Users/lab/Documents/surprise_project/surprise/stim/6_noeffect.mov 1281 22-Mar-2018 11:14:29 -4.896930e+02 2.840713e+02 0 0
95av13_m19 184 46 72 -45 -45 left 1 5.000000e-01 /Users/lab/Documents/surprise_project/surprise/stim/9_noeffect.mov 1150 22-Mar-2018 11:14:32 -1.865544e+02 -4.064417e+02 0 0
95av13_m19 184 47 63 -45 45 left 1 5.000000e-01 /Users/lab/Documents/surprise_project/surprise/stim/8_noeffect.mov 1099 22-Mar-2018 11:14:35 4.289471e+02 4.838776e+02 0 0
95av13_m19 184 48 19 -45 45 left 1 5.000000e-01 /Users/lab/Documents/surprise_project/surprise/stim/3_effect.mov 1231 22-Mar-2018 11:14:54 3.452384e+02 4.644104e+02 1 1
95av13_m19 184 49 21 45 45 right 1 5.000000e-01 /Users/lab/Documents/surprise_project/surprise/stim/3_noeffect.mov 1250 22-Mar-2018 11:14:58 -1.752522e+02 3.257145e+02 0 0
95av13_m19 184 50 7 -45 45 left 1 5.000000e-01 /Users/lab/Documents/surprise_project/surprise/stim/1_noeffect.mov 964 22-Mar-2018 11:15:01 9.553797e+01 2.049472e+02 1 0
95av13_m19 184 51 17 45 45 right 1 5.000000e-01 /Users/lab/Documents/surprise_project/surprise/stim/3_effect.mov 1216 22-Mar-2018 11:15:05 -1.914238e+02 -4.712420e+02 1 0
95av13_m19 184 52 60 -45 -45 NORESP 0 5.000000e-01 /Users/lab/Documents/surprise_project/surprise/stim/8_effect.mov 3013 22-Mar-2018 11:15:28 7.809173e+01 -2.135990e+02 1 1
95av13_m19 184 53 44 -45 -45 left 1 5.000000e-01 /Users/lab/Documents/surprise_project/surprise/stim/6_effect.mov 1064 22-Mar-2018 11:15:31 7.474027e+01 4.217211e+02 1 0
95av13_m19 184 54 53 45 45 NORESP 0 5.000000e-01 /Users/lab/Documents/surprise_project/surprise/stim/7_noeffect.mov 3000 22-Mar-2018 11:15:36 1.037816e+02 1.855421e+02 0 0
95av13_m19 184 55 24 -45 -45 left 1 5.000000e-01 /Users/lab/Documents/surprise_project/surprise/stim/3_noeffect.mov 1115 22-Mar-2018 11:15:40 -8.791039e+01 -8.107417e+01 0 0
95av13_m19 184 56 46 45 -45 right 1 5.000000e-01 /Users/lab/Documents/surprise_project/surprise/stim/6_noeffect.mov 1480 22-Mar-2018 11:15:56 2.375095e+02 -4.630572e+02 0 1
95av13_m19 184 57 30 45 -45 right 1 5.000000e-01 /Users/lab/Documents/surprise_project/surprise/stim/4_noeffect.mov 1115 22-Mar-2018 11:15:59 -3.183629e+01 3.054352e+02 0 0
95av13_m19 184 58 67 -45 45 left 1 5.000000e-01 /Users/lab/Documents/surprise_project/surprise/stim/9_effect.mov 1183 22-Mar-2018 11:16:02 -2.237969e+02 -3.735211e+02 1 0
95av13_m19 184 59 55 -45 45 left 1 5.000000e-01 /Users/lab/Documents/surprise_project/surprise/stim/7_noeffect.mov 1031 22-Mar-2018 11:16:06 -2.588625e+02 8.350287e+00 0 0
95av13_m19 184 60 68 -45 -45 left 1 5.000000e-01 /Users/lab/Documents/surprise_project/surprise/stim/9_effect.mov 1128 22-Mar-2018 11:16:28 3.665062e+01 5.629875e+01 1 1
95av13_m19 184 61 49 45 45 right 1 5.000000e-01 /Users/lab/Documents/surprise_project/surprise/stim/7_effect.mov 1298 22-Mar-2018 11:16:32 -1.554523e+02 4.488348e+02 1 0
95av13_m19 184 62 15 -45 45 left 1 5.000000e-01 /Users/lab/Documents/surprise_project/surprise/stim/2_noeffect.mov 998 22-Mar-2018 11:16:35 1.087901e+02 1.226644e+02 0 0
95av13_m19 184 63 57 45 45 right 1 5.000000e-01 /Users/lab/Documents/surprise_project/surprise/stim/8_effect.mov 1364 22-Mar-2018 11:16:39 1.118060e+02 -4.363149e+02 1 0
95av13_m19 184 64 32 -45 -45 left 1 5.000000e-01 /Users/lab/Documents/surprise_project/surprise/stim/4_noeffect.mov 1249 22-Mar-2018 11:16:56 3.438343e+02 1.502543e+02 0 1
95av13_m19 184 65 45 45 45 right 1 5.000000e-01 /Users/lab/Documents/surprise_project/surprise/stim/6_noeffect.mov 1365 22-Mar-2018 11:17:00 -3.263421e+02 2.565453e+02 0 0
95av13_m19 184 66 65 45 45 right 1 5.000000e-01 /Users/lab/Documents/surprise_project/surprise/stim/9_effect.mov 1432 22-Mar-2018 11:17:04 3.114922e+02 5.029861e+01 1 0
95av13_m19 184 67 2 45 -45 right 1 5.000000e-01 /Users/lab/Documents/surprise_project/surprise/stim/1_effect.mov 1150 22-Mar-2018 11:17:07 2.641049e+02 1.246864e+01 1 0
95av13_m19 184 68 62 45 -45 right 1 5.000000e-01 /Users/lab/Documents/surprise_project/surprise/stim/8_noeffect.mov 1346 22-Mar-2018 11:17:29 -3.360176e+02 -4.871605e+01 0 1
95av13_m19 184 69 20 -45 -45 left 1 5.000000e-01 /Users/lab/Documents/surprise_project/surprise/stim/3_effect.mov 1299 22-Mar-2018 11:17:33 -4.193640e+02 -1.713826e+02 1 0
95av13_m19 184 70 6 45 -45 right 1 5.000000e-01 /Users/lab/Documents/surprise_project/surprise/stim/1_noeffect.mov 1064 22-Mar-2018 11:17:36 3.844919e+02 8.374087e+01 1 0
95av13_m19 184 71 48 -45 -45 left 1 5.000000e-01 /Users/lab/Documents/surprise_project/surprise/stim/6_noeffect.mov 1198 22-Mar-2018 11:17:40 -5.873707e+01 -2.869015e+02 0 0
95av13_m19 184 72 52 -45 -45 left 1 5.000000e-01 /Users/lab/Documents/surprise_project/surprise/stim/7_effect.mov 1331 22-Mar-2018 11:17:43 -2.266813e+02 2.681039e+02 1 0
