subject_name subjectNumber iTrial unshuffled_trial targetOrientation flankersOrientation response correct onscreen_stim_duration magicShows rt date time_of_day deltaX deltaY surpriseClip isClipTrial
49ns02_f19 464 1 45 45 45 right 1 5.000000e-01 /Users/lab/Documents/surprise_project/surprise/stim/6_noeffect.mov 762 05-Apr-2018 15:23:29 -1.934091e+02 1.510004e+02 0 1
49ns02_f19 464 2 15 -45 45 left 1 5.000000e-01 /Users/lab/Documents/surprise_project/surprise/stim/2_noeffect.mov 663 05-Apr-2018 15:23:32 2.786258e+02 1.853686e+02 0 0
49ns02_f19 464 3 52 -45 -45 left 1 5.000000e-01 /Users/lab/Documents/surprise_project/surprise/stim/7_effect.mov 645 05-Apr-2018 15:23:35 -2.687051e+02 -8.761270e+01 1 0
49ns02_f19 464 4 29 45 45 right 1 5.000000e-01 /Users/lab/Documents/surprise_project/surprise/stim/4_noeffect.mov 679 05-Apr-2018 15:23:52 3.166537e+02 -8.651946e+01 0 1
49ns02_f19 464 5 51 -45 45 left 1 5.000000e-01 /Users/lab/Documents/surprise_project/surprise/stim/7_effect.mov 645 05-Apr-2018 15:23:55 3.458877e+02 4.709025e+02 1 0
49ns02_f19 464 6 70 45 -45 right 1 5.000000e-01 /Users/lab/Documents/surprise_project/surprise/stim/9_noeffect.mov 813 05-Apr-2018 15:23:58 4.063150e+02 1.209853e+02 0 0
49ns02_f19 464 7 22 45 -45 right 1 5.000000e-01 /Users/lab/Documents/surprise_project/surprise/stim/3_noeffect.mov 695 05-Apr-2018 15:24:01 4.007585e+02 -7.277032e+01 0 0
49ns02_f19 464 8 34 45 -45 right 1 5.000000e-01 /Users/lab/Documents/surprise_project/surprise/stim/5_effect.mov 810 05-Apr-2018 15:24:18 -4.110697e+02 -3.434607e+02 1 1
49ns02_f19 464 9 50 45 -45 right 1 5.000000e-01 /Users/lab/Documents/surprise_project/surprise/stim/7_effect.mov 695 05-Apr-2018 15:24:21 -4.381339e+02 3.884823e+02 1 0
49ns02_f19 464 10 2 45 -45 right 1 5.000000e-01 /Users/lab/Documents/surprise_project/surprise/stim/1_effect.mov 596 05-Apr-2018 15:24:24 4.524489e+02 -3.959329e+02 1 0
49ns02_f19 464 11 57 45 45 right 1 5.000000e-01 /Users/lab/Documents/surprise_project/surprise/stim/8_effect.mov 746 05-Apr-2018 15:24:27 -4.593611e+00 2.065938e+02 1 0
49ns02_f19 464 12 18 45 -45 right 1 5.000000e-01 /Users/lab/Documents/surprise_project/surprise/stim/3_effect.mov 745 05-Apr-2018 15:24:46 -4.709257e+02 -4.142836e+02 1 1
49ns02_f19 464 13 40 -45 -45 left 1 5.000000e-01 /Users/lab/Documents/surprise_project/surprise/stim/5_noeffect.mov 596 05-Apr-2018 15:24:49 2.706582e+02 -1.926159e+02 0 0
49ns02_f19 464 14 33 45 45 right 1 5.000000e-01 /Users/lab/Documents/surprise_project/surprise/stim/5_effect.mov 629 05-Apr-2018 15:24:52 -1.566362e+02 3.593802e+02 1 0
49ns02_f19 464 15 17 45 45 right 1 5.000000e-01 /Users/lab/Documents/surprise_project/surprise/stim/3_effect.mov 582 05-Apr-2018 15:24:54 2.187168e+02 1.442299e+02 1 0
49ns02_f19 464 16 59 -45 45 left 1 5.000000e-01 /Users/lab/Documents/surprise_project/surprise/stim/8_effect.mov 826 05-Apr-2018 15:25:16 4.266255e+02 3.969247e+02 1 1
49ns02_f19 464 17 62 45 -45 right 1 5.000000e-01 /Users/lab/Documents/surprise_project/surprise/stim/8_noeffect.mov 579 05-Apr-2018 15:25:19 -4.977550e+02 3.927118e+02 0 0
49ns02_f19 464 18 55 -45 45 left 1 5.000000e-01 /Users/lab/Documents/surprise_project/surprise/stim/7_noeffect.mov 662 05-Apr-2018 15:25:22 1.759397e+02 -3.856287e+02 0 0
49ns02_f19 464 19 25 45 45 right 1 5.000000e-01 /Users/lab/Documents/surprise_project/surprise/stim/4_effect.mov 613 05-Apr-2018 15:25:25 1.200845e+02 2.049837e+02 1 0
49ns02_f19 464 20 1 45 45 right 1 5.000000e-01 /Users/lab/Documents/surprise_project/surprise/stim/1_effect.mov 929 05-Apr-2018 15:25:50 2.646797e+02 -1.475334e+02 1 1
49ns02_f19 464 21 20 -45 -45 left 1 5.000000e-01 /Users/lab/Documents/surprise_project/surprise/stim/3_effect.mov 795 05-Apr-2018 15:25:53 -1.927179e+02 4.784870e+02 1 0
49ns02_f19 464 22 53 45 45 right 1 5.000000e-01 /Users/lab/Documents/surprise_project/surprise/stim/7_noeffect.mov 648 05-Apr-2018 15:25:56 3.292991e+02 4.099947e+02 0 0
49ns02_f19 464 23 46 45 -45 right 1 5.000000e-01 /Users/lab/Documents/surprise_project/surprise/stim/6_noeffect.mov 697 05-Apr-2018 15:25:59 -3.208514e+02 -2.798329e+01 0 0
49ns02_f19 464 24 21 45 45 right 1 5.000000e-01 /Users/lab/Documents/surprise_project/surprise/stim/3_noeffect.mov 728 05-Apr-2018 15:26:17 2.641312e+02 4.488735e+01 0 1
49ns02_f19 464 25 13 45 45 right 1 5.000000e-01 /Users/lab/Documents/surprise_project/surprise/stim/2_noeffect.mov 645 05-Apr-2018 15:26:20 1.593552e+02 1.119510e+01 0 0
49ns02_f19 464 26 65 45 45 right 1 5.000000e-01 /Users/lab/Documents/surprise_project/surprise/stim/9_effect.mov 628 05-Apr-2018 15:26:23 2.879288e+02 2.763551e+01 1 0
49ns02_f19 464 27 3 -45 45 left 1 5.000000e-01 /Users/lab/Documents/surprise_project/surprise/stim/1_effect.mov 712 05-Apr-2018 15:26:26 3.507432e+02 -7.039825e+01 1 0
49ns02_f19 464 28 26 45 -45 right 1 5.000000e-01 /Users/lab/Documents/surprise_project/surprise/stim/4_effect.mov 844 05-Apr-2018 15:26:43 1.900467e+02 -2.276514e+02 1 1
49ns02_f19 464 29 44 -45 -45 left 1 5.000000e-01 /Users/lab/Documents/surprise_project/surprise/stim/6_effect.mov 662 05-Apr-2018 15:26:46 -1.994620e+02 5.380515e+01 1 0
49ns02_f19 464 30 31 -45 45 left 1 5.000000e-01 /Users/lab/Documents/surprise_project/surprise/stim/4_noeffect.mov 597 05-Apr-2018 15:26:49 7.435116e+01 9.566770e+01 0 0
49ns02_f19 464 31 56 -45 -45 left 1 5.000000e-01 /Users/lab/Documents/surprise_project/surprise/stim/7_noeffect.mov 679 05-Apr-2018 15:26:52 4.471061e+02 -4.813573e+02 0 0
49ns02_f19 464 32 14 45 -45 right 1 5.000000e-01 /Users/lab/Documents/surprise_project/surprise/stim/2_noeffect.mov 779 05-Apr-2018 15:27:17 3.196932e+01 -3.610329e+02 0 1
49ns02_f19 464 33 27 -45 45 left 1 5.000000e-01 /Users/lab/Documents/surprise_project/surprise/stim/4_effect.mov 629 05-Apr-2018 15:27:20 -3.180840e+02 2.094514e+02 1 0
49ns02_f19 464 34 11 -45 45 left 1 5.000000e-01 /Users/lab/Documents/surprise_project/surprise/stim/2_effect.mov 614 05-Apr-2018 15:27:23 4.215951e+02 -4.915850e+02 1 0
49ns02_f19 464 35 54 45 -45 right 1 5.000000e-01 /Users/lab/Documents/surprise_project/surprise/stim/7_noeffect.mov 678 05-Apr-2018 15:27:26 -2.415135e+02 3.034920e+02 0 0
49ns02_f19 464 36 6 45 -45 right 1 5.000000e-01 /Users/lab/Documents/surprise_project/surprise/stim/1_noeffect.mov 911 05-Apr-2018 15:27:51 7.120495e+01 -1.692638e+02 1 1
49ns02_f19 464 37 28 -45 -45 left 1 5.000000e-01 /Users/lab/Documents/surprise_project/surprise/stim/4_effect.mov 546 05-Apr-2018 15:27:54 -1.701891e+02 2.248600e+02 1 0
49ns02_f19 464 38 64 -45 -45 left 1 5.000000e-01 /Users/lab/Documents/surprise_project/surprise/stim/8_noeffect.mov 461 05-Apr-2018 15:27:57 -4.642652e+02 -2.181903e+02 0 0
49ns02_f19 464 39 4 -45 -45 left 1 5.000000e-01 /Users/lab/Documents/surprise_project/surprise/stim/1_effect.mov 645 05-Apr-2018 15:28:00 4.814037e+02 6.839468e+01 1 0
49ns02_f19 464 40 12 -45 -45 left 1 5.000000e-01 /Users/lab/Documents/surprise_project/surprise/stim/2_effect.mov 695 05-Apr-2018 15:28:25 4.031782e+01 -3.920401e+02 1 1
49ns02_f19 464 41 36 -45 -45 left 1 5.000000e-01 /Users/lab/Documents/surprise_project/surprise/stim/5_effect.mov 511 05-Apr-2018 15:28:28 1.415643e+02 -4.025673e+02 1 0
49ns02_f19 464 42 69 45 45 right 1 5.000000e-01 /Users/lab/Documents/surprise_project/surprise/stim/9_noeffect.mov 514 05-Apr-2018 15:28:31 1.764138e+02 -2.542114e+02 0 0
49ns02_f19 464 43 32 -45 -45 left 1 5.000000e-01 /Users/lab/Documents/surprise_project/surprise/stim/4_noeffect.mov 564 05-Apr-2018 15:28:34 4.477636e+02 3.626389e+02 0 0
49ns02_f19 464 44 63 -45 45 left 1 5.000000e-01 /Users/lab/Documents/surprise_project/surprise/stim/8_noeffect.mov 929 05-Apr-2018 15:28:55 -1.051274e+01 3.214974e+02 0 1
49ns02_f19 464 45 42 45 -45 right 1 5.000000e-01 /Users/lab/Documents/surprise_project/surprise/stim/6_effect.mov 612 05-Apr-2018 15:28:58 1.204194e+02 -3.970739e+02 1 0
49ns02_f19 464 46 37 45 45 right 1 5.000000e-01 /Users/lab/Documents/surprise_project/surprise/stim/5_noeffect.mov 680 05-Apr-2018 15:29:01 2.803577e+02 3.347615e+02 0 0
49ns02_f19 464 47 9 45 45 right 1 5.000000e-01 /Users/lab/Documents/surprise_project/surprise/stim/2_effect.mov 614 05-Apr-2018 15:29:04 -2.479660e+02 1.363706e+02 1 0
49ns02_f19 464 48 19 -45 45 left 1 5.000000e-01 /Users/lab/Documents/surprise_project/surprise/stim/3_effect.mov 868 05-Apr-2018 15:29:23 6.657922e+01 5.522450e+01 1 1
49ns02_f19 464 49 30 45 -45 right 1 5.000000e-01 /Users/lab/Documents/surprise_project/surprise/stim/4_noeffect.mov 778 05-Apr-2018 15:29:26 3.590649e+02 -4.900415e+02 0 0
49ns02_f19 464 50 47 -45 45 left 1 5.000000e-01 /Users/lab/Documents/surprise_project/surprise/stim/6_noeffect.mov 629 05-Apr-2018 15:29:29 -4.857502e+02 -1.441151e+02 0 0
49ns02_f19 464 51 48 -45 -45 left 1 5.000000e-01 /Users/lab/Documents/surprise_project/surprise/stim/6_noeffect.mov 595 05-Apr-2018 15:29:32 -3.899825e+02 -4.813964e+02 0 0
49ns02_f19 464 52 43 -45 45 left 1 5.000000e-01 /Users/lab/Documents/surprise_project/surprise/stim/6_effect.mov 811 05-Apr-2018 15:29:47 -3.602370e+02 -1.350853e+02 1 1
49ns02_f19 464 53 23 -45 45 left 1 5.000000e-01 /Users/lab/Documents/surprise_project/surprise/stim/3_noeffect.mov 629 05-Apr-2018 15:29:50 2.004625e+02 3.447811e+02 0 0
49ns02_f19 464 54 16 -45 -45 left 1 5.000000e-01 /Users/lab/Documents/surprise_project/surprise/stim/2_noeffect.mov 731 05-Apr-2018 15:29:53 -2.408861e+02 7.654091e+01 0 0
49ns02_f19 464 55 41 45 45 right 1 5.000000e-01 /Users/lab/Documents/surprise_project/surprise/stim/6_effect.mov 646 05-Apr-2018 15:29:56 2.916973e+02 -1.927333e+02 1 0
49ns02_f19 464 56 5 45 45 right 1 5.000000e-01 /Users/lab/Documents/surprise_project/surprise/stim/1_noeffect.mov 745 05-Apr-2018 15:30:21 2.869196e+01 1.232261e+02 1 1
49ns02_f19 464 57 39 -45 45 left 1 5.000000e-01 /Users/lab/Documents/surprise_project/surprise/stim/5_noeffect.mov 529 05-Apr-2018 15:30:24 -3.637002e+02 1.340617e+02 0 0
49ns02_f19 464 58 58 45 -45 right 1 5.000000e-01 /Users/lab/Documents/surprise_project/surprise/stim/8_effect.mov 630 05-Apr-2018 15:30:27 -2.089410e+02 4.865988e+02 1 0
49ns02_f19 464 59 24 -45 -45 left 1 5.000000e-01 /Users/lab/Documents/surprise_project/surprise/stim/3_noeffect.mov 466 05-Apr-2018 15:30:30 3.189760e+02 -3.233337e+02 0 0
49ns02_f19 464 60 36 -45 45 left 1 5.000000e-01 /Users/lab/Documents/surprise_project/surprise/stim/5_effect.mov 728 05-Apr-2018 15:30:47 4.518138e+01 -2.170782e+02 1 1
49ns02_f19 464 61 38 45 -45 right 1 5.000000e-01 /Users/lab/Documents/surprise_project/surprise/stim/5_noeffect.mov 679 05-Apr-2018 15:30:50 -2.690336e+02 4.843791e+02 0 0
49ns02_f19 464 62 71 -45 45 left 1 5.000000e-01 /Users/lab/Documents/surprise_project/surprise/stim/9_noeffect.mov 545 05-Apr-2018 15:30:52 -3.662714e+02 2.614152e+02 0 0
49ns02_f19 464 63 72 -45 -45 left 1 5.000000e-01 /Users/lab/Documents/surprise_project/surprise/stim/9_noeffect.mov 648 05-Apr-2018 15:30:55 -2.996581e+02 1.996409e+01 0 0
49ns02_f19 464 64 49 45 45 right 1 5.000000e-01 /Users/lab/Documents/surprise_project/surprise/stim/7_effect.mov 711 05-Apr-2018 15:31:15 1.238040e+02 4.245374e+02 1 1
49ns02_f19 464 65 67 -45 45 left 1 5.000000e-01 /Users/lab/Documents/surprise_project/surprise/stim/9_effect.mov 563 05-Apr-2018 15:31:18 4.792671e+02 -4.377522e+02 1 0
49ns02_f19 464 66 8 -45 -45 left 1 5.000000e-01 /Users/lab/Documents/surprise_project/surprise/stim/1_noeffect.mov 563 05-Apr-2018 15:31:20 -1.391544e+02 2.252163e+02 1 0
49ns02_f19 464 67 60 -45 -45 left 1 5.000000e-01 /Users/lab/Documents/surprise_project/surprise/stim/8_effect.mov 614 05-Apr-2018 15:31:23 -3.943923e+01 -3.542223e+01 1 0
49ns02_f19 464 68 61 45 45 right 1 5.000000e-01 /Users/lab/Documents/surprise_project/surprise/stim/8_noeffect.mov 730 05-Apr-2018 15:31:44 -1.883599e+02 4.363675e+02 0 1
49ns02_f19 464 69 10 45 -45 right 1 5.000000e-01 /Users/lab/Documents/surprise_project/surprise/stim/2_effect.mov 664 05-Apr-2018 15:31:47 3.603906e+02 4.314254e+02 1 0
49ns02_f19 464 70 68 -45 -45 left 1 5.000000e-01 /Users/lab/Documents/surprise_project/surprise/stim/9_effect.mov 438 05-Apr-2018 15:31:50 -5.791308e+01 -4.558107e+01 1 0
49ns02_f19 464 71 7 -45 45 left 1 5.000000e-01 /Users/lab/Documents/surprise_project/surprise/stim/1_noeffect.mov 780 05-Apr-2018 15:31:53 3.652367e+02 8.091794e+01 1 0
49ns02_f19 464 72 66 45 -45 right 1 5.000000e-01 /Users/lab/Documents/surprise_project/surprise/stim/9_effect.mov 547 05-Apr-2018 15:31:56 1.844117e+01 -3.956209e+02 1 0
