subject_name subjectNumber iTrial unshuffled_trial targetOrientation flankersOrientation response correct onscreen_stim_duration magicShows rt date time_of_day deltaX deltaY surpriseClip isClipTrial
34AM03_F19 1 1 10 45 -45 right 1 5.000000e-01 /Users/lab/Documents/magic3Definitivo/stim/2_effect.mov 2127 03-May-2017 15:16:33 -4.683209e+01 -4.878014e+02 1 1
34AM03_F19 1 2 76 -45 -45 left 1 5.000000e-01 /Users/lab/Documents/magic3Definitivo/stim/10_effect.mov 1742 03-May-2017 15:16:38 1.745729e+02 -4.482499e+02 1 0
34AM03_F19 1 3 16 -45 -45 left 1 5.000000e-01 /Users/lab/Documents/magic3Definitivo/stim/2_noeffect.mov 1479 03-May-2017 15:16:41 -3.567521e+02 2.463911e+02 0 0
34AM03_F19 1 4 26 45 -45 right 1 5.000000e-01 /Users/lab/Documents/magic3Definitivo/stim/4_effect.mov 1632 03-May-2017 15:16:59 -8.027455e+01 -2.864273e+02 1 1
34AM03_F19 1 5 14 45 -45 right 1 5.000000e-01 /Users/lab/Documents/magic3Definitivo/stim/2_noeffect.mov 1209 03-May-2017 15:17:03 2.051002e+02 -2.718241e+02 0 0
34AM03_F19 1 6 19 -45 45 left 1 5.000000e-01 /Users/lab/Documents/magic3Definitivo/stim/3_effect.mov 1276 03-May-2017 15:17:07 4.392534e+01 -1.761803e+02 1 0
34AM03_F19 1 7 51 -45 45 left 1 5.000000e-01 /Users/lab/Documents/magic3Definitivo/stim/7_effect.mov 1011 03-May-2017 15:17:10 2.716618e+02 -3.575649e+02 1 0
34AM03_F19 1 8 43 -45 45 left 1 5.000000e-01 /Users/lab/Documents/magic3Definitivo/stim/6_effect.mov 1111 03-May-2017 15:17:25 -2.905047e+02 -4.196286e+02 1 1
34AM03_F19 1 9 9 45 45 right 1 5.000000e-01 /Users/lab/Documents/magic3Definitivo/stim/2_effect.mov 729 03-May-2017 15:17:29 -4.801516e+02 4.796366e+02 1 0
34AM03_F19 1 10 1 45 45 right 1 5.000000e-01 /Users/lab/Documents/magic3Definitivo/stim/1_effect.mov 809 03-May-2017 15:17:32 -2.473098e+01 1.887506e+02 1 0
34AM03_F19 1 11 38 45 -45 right 1 5.000000e-01 /Users/lab/Documents/magic3Definitivo/stim/5_noeffect.mov 996 03-May-2017 15:17:35 3.511955e+02 -1.243368e+02 0 0
34AM03_F19 1 12 74 45 -45 right 1 5.000000e-01 /Users/lab/Documents/magic3Definitivo/stim/10_effect.mov 895 03-May-2017 15:17:50 -1.300316e+02 9.794469e+01 1 1
34AM03_F19 1 13 70 45 -45 right 1 5.000000e-01 /Users/lab/Documents/magic3Definitivo/stim/9_noeffect.mov 859 03-May-2017 15:17:53 4.780589e+02 -2.766506e+01 0 0
34AM03_F19 1 14 31 -45 45 left 1 5.000000e-01 /Users/lab/Documents/magic3Definitivo/stim/4_noeffect.mov 946 03-May-2017 15:17:56 -4.329903e+01 1.676328e+02 0 0
34AM03_F19 1 15 58 45 -45 right 1 5.000000e-01 /Users/lab/Documents/magic3Definitivo/stim/8_effect.mov 1891 03-May-2017 15:18:00 -4.701417e+02 -4.726970e+02 1 0
34AM03_F19 1 16 2 45 -45 right 1 5.000000e-01 /Users/lab/Documents/magic3Definitivo/stim/1_effect.mov 1176 03-May-2017 15:18:26 -1.646178e+02 1.091186e+02 1 1
34AM03_F19 1 17 55 -45 45 left 1 5.000000e-01 /Users/lab/Documents/magic3Definitivo/stim/7_noeffect.mov 1145 03-May-2017 15:18:29 -3.295263e+02 -3.654269e+02 0 0
34AM03_F19 1 18 56 -45 -45 left 1 5.000000e-01 /Users/lab/Documents/magic3Definitivo/stim/7_noeffect.mov 1344 03-May-2017 15:18:33 -3.653672e+02 3.485332e+02 0 0
34AM03_F19 1 19 22 45 -45 right 1 5.000000e-01 /Users/lab/Documents/magic3Definitivo/stim/3_noeffect.mov 1227 03-May-2017 15:18:36 2.925644e+01 2.761252e+02 0 0
34AM03_F19 1 20 64 -45 -45 left 1 5.000000e-01 /Users/lab/Documents/magic3Definitivo/stim/8_noeffect.mov 1595 03-May-2017 15:18:58 2.450663e+02 -3.716315e+02 0 1
34AM03_F19 1 21 65 45 45 right 1 5.000000e-01 /Users/lab/Documents/magic3Definitivo/stim/9_effect.mov 1511 03-May-2017 15:19:02 1.639354e+02 2.854510e+02 1 0
34AM03_F19 1 22 46 45 -45 right 1 5.000000e-01 /Users/lab/Documents/magic3Definitivo/stim/6_noeffect.mov 1044 03-May-2017 15:19:05 -1.779187e+02 5.397390e+01 0 0
34AM03_F19 1 23 33 45 45 right 1 5.000000e-01 /Users/lab/Documents/magic3Definitivo/stim/5_effect.mov 1044 03-May-2017 15:19:08 -2.237510e+02 1.166219e+02 1 0
34AM03_F19 1 24 60 -45 -45 left 1 5.000000e-01 /Users/lab/Documents/magic3Definitivo/stim/8_effect.mov 1779 03-May-2017 15:19:30 -1.345705e+02 -4.509776e+02 1 1
34AM03_F19 1 25 25 45 45 right 1 5.000000e-01 /Users/lab/Documents/magic3Definitivo/stim/4_effect.mov 1062 03-May-2017 15:19:34 -8.468103e+01 -1.359876e+02 1 0
34AM03_F19 1 26 68 -45 -45 left 1 5.000000e-01 /Users/lab/Documents/magic3Definitivo/stim/9_effect.mov 894 03-May-2017 15:19:37 -4.279250e+02 -7.173301e+01 1 0
34AM03_F19 1 27 73 45 45 right 1 5.000000e-01 /Users/lab/Documents/magic3Definitivo/stim/10_effect.mov 960 03-May-2017 15:19:40 -8.467512e+01 4.111742e+02 1 0
34AM03_F19 1 28 37 45 45 right 1 5.000000e-01 /Users/lab/Documents/magic3Definitivo/stim/5_noeffect.mov 1209 03-May-2017 15:19:57 1.743887e+02 8.686943e-01 0 1
34AM03_F19 1 29 12 -45 -45 left 1 5.000000e-01 /Users/lab/Documents/magic3Definitivo/stim/2_effect.mov 1129 03-May-2017 15:20:00 -9.296775e+01 -4.578474e+01 1 0
34AM03_F19 1 30 40 -45 -45 left 1 5.000000e-01 /Users/lab/Documents/magic3Definitivo/stim/5_noeffect.mov 1144 03-May-2017 15:20:04 1.581417e+02 1.574042e+02 0 0
34AM03_F19 1 31 49 45 45 right 1 5.000000e-01 /Users/lab/Documents/magic3Definitivo/stim/7_effect.mov 1245 03-May-2017 15:20:07 -3.994281e+02 -3.613153e+02 1 0
34AM03_F19 1 32 20 -45 -45 left 1 5.000000e-01 /Users/lab/Documents/magic3Definitivo/stim/3_effect.mov 1311 03-May-2017 15:20:26 -2.218136e+02 2.842765e+01 1 1
34AM03_F19 1 33 63 -45 45 left 1 5.000000e-01 /Users/lab/Documents/magic3Definitivo/stim/8_noeffect.mov 1240 03-May-2017 15:20:30 4.762402e+02 7.592686e+01 0 0
34AM03_F19 1 34 6 45 -45 right 1 5.000000e-01 /Users/lab/Documents/magic3Definitivo/stim/1_noeffect.mov 1161 03-May-2017 15:20:33 -1.598559e+02 3.099152e+01 1 0
34AM03_F19 1 35 27 -45 45 left 1 5.000000e-01 /Users/lab/Documents/magic3Definitivo/stim/4_effect.mov 1223 03-May-2017 15:20:36 3.316840e+02 -4.858307e+02 1 0
34AM03_F19 1 36 17 45 45 right 1 5.000000e-01 /Users/lab/Documents/magic3Definitivo/stim/3_effect.mov 1294 03-May-2017 15:20:55 -3.954505e+02 -1.904676e+02 1 1
34AM03_F19 1 37 11 -45 45 left 1 5.000000e-01 /Users/lab/Documents/magic3Definitivo/stim/2_effect.mov 1311 03-May-2017 15:20:59 -1.196203e+02 8.702907e+01 1 0
34AM03_F19 1 38 23 -45 45 left 1 5.000000e-01 /Users/lab/Documents/magic3Definitivo/stim/3_noeffect.mov 1193 03-May-2017 15:21:02 -2.623446e+02 -4.947158e+01 0 0
34AM03_F19 1 39 52 -45 -45 left 1 5.000000e-01 /Users/lab/Documents/magic3Definitivo/stim/7_effect.mov 1011 03-May-2017 15:21:05 -3.088867e+02 4.969691e+02 1 0
34AM03_F19 1 40 77 45 45 right 1 5.000000e-01 /Users/lab/Documents/magic3Definitivo/stim/10_noeffect.mov 1594 03-May-2017 15:21:20 -4.960962e+02 -9.136595e+01 0 1
34AM03_F19 1 41 32 -45 -45 left 1 5.000000e-01 /Users/lab/Documents/magic3Definitivo/stim/4_noeffect.mov 1779 03-May-2017 15:21:24 -3.819120e+02 -1.759050e+02 0 0
34AM03_F19 1 42 28 -45 -45 left 1 5.000000e-01 /Users/lab/Documents/magic3Definitivo/stim/4_effect.mov 1228 03-May-2017 15:21:28 -1.092162e+02 1.103119e+02 1 0
34AM03_F19 1 43 69 45 45 right 1 5.000000e-01 /Users/lab/Documents/magic3Definitivo/stim/9_noeffect.mov 1209 03-May-2017 15:21:31 -4.528486e+02 -4.337480e+02 0 0
34AM03_F19 1 44 5 45 45 right 1 5.000000e-01 /Users/lab/Documents/magic3Definitivo/stim/1_noeffect.mov 1176 03-May-2017 15:21:57 -2.667118e+01 -3.627959e+02 1 1
34AM03_F19 1 45 41 45 45 right 1 5.000000e-01 /Users/lab/Documents/magic3Definitivo/stim/6_effect.mov 995 03-May-2017 15:22:00 -4.544025e+02 -1.421616e+02 1 0
34AM03_F19 1 46 45 45 45 right 1 5.000000e-01 /Users/lab/Documents/magic3Definitivo/stim/6_noeffect.mov 978 03-May-2017 15:22:03 -2.107113e+02 3.455021e+02 0 0
34AM03_F19 1 47 39 -45 45 left 1 5.000000e-01 /Users/lab/Documents/magic3Definitivo/stim/5_noeffect.mov 1078 03-May-2017 15:22:06 -2.124063e+02 -3.386791e+02 0 0
34AM03_F19 1 48 72 -45 -45 left 1 5.000000e-01 /Users/lab/Documents/magic3Definitivo/stim/9_noeffect.mov 1377 03-May-2017 15:22:29 2.772503e+02 -1.800204e+01 0 1
34AM03_F19 1 49 29 45 45 left 0 5.000000e-01 /Users/lab/Documents/magic3Definitivo/stim/4_noeffect.mov 1160 03-May-2017 15:22:32 -4.607842e+02 -4.818217e+02 0 0
34AM03_F19 1 50 61 45 45 right 1 5.000000e-01 /Users/lab/Documents/magic3Definitivo/stim/8_noeffect.mov 811 03-May-2017 15:22:35 3.753399e+02 1.376004e+02 0 0
34AM03_F19 1 51 30 45 -45 right 1 5.000000e-01 /Users/lab/Documents/magic3Definitivo/stim/4_noeffect.mov 1079 03-May-2017 15:22:38 -1.186339e+02 -4.581837e+02 0 0
34AM03_F19 1 52 44 -45 -45 left 1 5.000000e-01 /Users/lab/Documents/magic3Definitivo/stim/6_effect.mov 1243 03-May-2017 15:22:54 -3.306234e+02 1.410208e+02 1 1
34AM03_F19 1 53 18 45 -45 right 1 5.000000e-01 /Users/lab/Documents/magic3Definitivo/stim/3_effect.mov 1144 03-May-2017 15:22:57 1.324076e+02 -3.061439e+02 1 0
34AM03_F19 1 54 79 -45 45 left 1 5.000000e-01 /Users/lab/Documents/magic3Definitivo/stim/10_noeffect.mov 1140 03-May-2017 15:23:01 -3.243637e+02 -2.970249e+02 0 0
34AM03_F19 1 55 34 45 -45 right 1 5.000000e-01 /Users/lab/Documents/magic3Definitivo/stim/5_effect.mov 1161 03-May-2017 15:23:04 4.393480e+02 1.633090e+02 1 0
34AM03_F19 1 56 13 45 45 right 1 5.000000e-01 /Users/lab/Documents/magic3Definitivo/stim/2_noeffect.mov 1227 03-May-2017 15:23:29 -4.496229e+02 7.871198e+01 0 1
34AM03_F19 1 57 4 -45 -45 left 1 5.000000e-01 /Users/lab/Documents/magic3Definitivo/stim/1_effect.mov 1844 03-May-2017 15:23:33 -3.030751e+02 2.884212e+02 1 0
34AM03_F19 1 58 8 -45 -45 left 1 5.000000e-01 /Users/lab/Documents/magic3Definitivo/stim/1_noeffect.mov 995 03-May-2017 15:23:37 -4.591179e+02 3.567225e+02 1 0
34AM03_F19 1 59 80 -45 -45 left 1 5.000000e-01 /Users/lab/Documents/magic3Definitivo/stim/10_noeffect.mov 1012 03-May-2017 15:23:40 2.429811e+02 4.533394e+02 0 0
34AM03_F19 1 60 59 -45 45 left 1 5.000000e-01 /Users/lab/Documents/magic3Definitivo/stim/8_effect.mov 1610 03-May-2017 15:24:02 -6.681971e+00 4.886242e+02 1 1
34AM03_F19 1 61 48 -45 -45 left 1 5.000000e-01 /Users/lab/Documents/magic3Definitivo/stim/6_noeffect.mov 929 03-May-2017 15:24:05 -9.315539e+01 3.200978e+02 0 0
34AM03_F19 1 62 50 45 -45 right 1 5.000000e-01 /Users/lab/Documents/magic3Definitivo/stim/7_effect.mov 1495 03-May-2017 15:24:09 4.045921e+02 6.814623e+00 1 0
34AM03_F19 1 63 57 45 45 right 1 5.000000e-01 /Users/lab/Documents/magic3Definitivo/stim/8_effect.mov 1144 03-May-2017 15:24:12 -3.574972e+02 6.060650e+01 1 0
34AM03_F19 1 64 7 -45 45 left 1 5.000000e-01 /Users/lab/Documents/magic3Definitivo/stim/1_noeffect.mov 1676 03-May-2017 15:24:38 -2.084721e+02 -3.284588e+01 1 1
34AM03_F19 1 65 71 -45 45 left 1 5.000000e-01 /Users/lab/Documents/magic3Definitivo/stim/9_noeffect.mov 1306 03-May-2017 15:24:41 1.763622e+02 3.743595e+02 0 0
34AM03_F19 1 66 24 -45 -45 left 1 5.000000e-01 /Users/lab/Documents/magic3Definitivo/stim/3_noeffect.mov 1779 03-May-2017 15:24:45 2.013514e+02 1.918410e+02 0 0
34AM03_F19 1 67 75 -45 45 left 1 5.000000e-01 /Users/lab/Documents/magic3Definitivo/stim/10_effect.mov 1162 03-May-2017 15:24:49 -3.084301e+02 1.776629e+02 1 0
34AM03_F19 1 68 42 45 -45 right 1 5.000000e-01 /Users/lab/Documents/magic3Definitivo/stim/6_effect.mov 1478 03-May-2017 15:25:04 3.605750e+02 -4.020531e+02 1 1
34AM03_F19 1 69 54 45 -45 right 1 5.000000e-01 /Users/lab/Documents/magic3Definitivo/stim/7_noeffect.mov 1095 03-May-2017 15:25:08 4.192505e+02 5.292040e+01 0 0
34AM03_F19 1 70 62 45 -45 right 1 5.000000e-01 /Users/lab/Documents/magic3Definitivo/stim/8_noeffect.mov 1273 03-May-2017 15:25:11 7.314696e+01 -4.284166e+02 0 0
34AM03_F19 1 71 15 -45 45 left 1 5.000000e-01 /Users/lab/Documents/magic3Definitivo/stim/2_noeffect.mov 1146 03-May-2017 15:25:15 1.740707e+01 6.873920e+01 0 0
34AM03_F19 1 72 36 -45 -45 left 1 5.000000e-01 /Users/lab/Documents/magic3Definitivo/stim/5_effect.mov 1228 03-May-2017 15:25:32 -1.735846e+02 -2.221955e+02 1 1
34AM03_F19 1 73 36 -45 45 left 1 5.000000e-01 /Users/lab/Documents/magic3Definitivo/stim/5_effect.mov 1326 03-May-2017 15:25:36 4.129438e+02 -1.997243e+02 1 0
34AM03_F19 1 74 21 45 45 right 1 5.000000e-01 /Users/lab/Documents/magic3Definitivo/stim/3_noeffect.mov 1344 03-May-2017 15:25:39 4.130093e+02 5.021542e+01 0 0
34AM03_F19 1 75 67 -45 45 left 1 5.000000e-01 /Users/lab/Documents/magic3Definitivo/stim/9_effect.mov 1162 03-May-2017 15:25:42 2.117431e+02 2.447523e+02 1 0
34AM03_F19 1 76 66 45 -45 right 1 5.000000e-01 /Users/lab/Documents/magic3Definitivo/stim/9_effect.mov 1461 03-May-2017 15:26:05 3.121117e+02 4.336757e+02 1 1
34AM03_F19 1 77 53 45 45 right 1 5.000000e-01 /Users/lab/Documents/magic3Definitivo/stim/7_noeffect.mov 1011 03-May-2017 15:26:08 -3.210839e+02 -2.974127e+02 0 0
34AM03_F19 1 78 3 -45 45 left 1 5.000000e-01 /Users/lab/Documents/magic3Definitivo/stim/1_effect.mov 1109 03-May-2017 15:26:12 -4.028838e+02 4.977501e-01 1 0
34AM03_F19 1 79 78 45 -45 right 1 5.000000e-01 /Users/lab/Documents/magic3Definitivo/stim/10_noeffect.mov 912 03-May-2017 15:26:15 9.540320e+00 -1.543904e+02 0 0
34AM03_F19 1 80 47 -45 45 left 1 5.000000e-01 /Users/lab/Documents/magic3Definitivo/stim/6_noeffect.mov 959 03-May-2017 15:26:18 4.652792e+01 -2.398825e+02 0 0
