subject_name subjectNumber iTrial unshuffled_trial targetOrientation flankersOrientation response correct onscreen_stim_duration magicShows rt date time_of_day deltaX deltaY surpriseClip isClipTrial
66MN1_M20 4 1 10 45 -45 right 1 5.000000e-01 /Users/lab/Documents/magic3Definitivo/stim/2_effect.mov 624 04-May-2017 18:06:30 -2.304748e+02 -2.165003e+02 1 1
66MN1_M20 4 2 42 45 -45 right 1 5.000000e-01 /Users/lab/Documents/magic3Definitivo/stim/6_effect.mov 609 04-May-2017 18:06:33 -4.083703e+02 4.217093e+02 1 0
66MN1_M20 4 3 4 -45 -45 left 1 5.000000e-01 /Users/lab/Documents/magic3Definitivo/stim/1_effect.mov 433 04-May-2017 18:06:35 -2.013839e+02 -4.543079e+02 1 0
66MN1_M20 4 4 7 -45 45 left 1 5.000000e-01 /Users/lab/Documents/magic3Definitivo/stim/1_noeffect.mov 611 04-May-2017 18:07:00 3.679542e+02 -4.537242e+02 1 1
66MN1_M20 4 5 80 -45 -45 left 1 5.000000e-01 /Users/lab/Documents/magic3Definitivo/stim/10_noeffect.mov 562 04-May-2017 18:07:03 4.381944e+02 -9.178958e+00 0 0
66MN1_M20 4 6 78 45 -45 right 1 5.000000e-01 /Users/lab/Documents/magic3Definitivo/stim/10_noeffect.mov 528 04-May-2017 18:07:06 6.392416e+01 -3.516885e+02 0 0
66MN1_M20 4 7 26 45 -45 right 1 5.000000e-01 /Users/lab/Documents/magic3Definitivo/stim/4_effect.mov 637 04-May-2017 18:07:09 1.826568e+02 -4.390926e+02 1 0
66MN1_M20 4 8 49 45 45 right 1 5.000000e-01 /Users/lab/Documents/magic3Definitivo/stim/7_effect.mov 761 04-May-2017 18:07:28 9.404844e+01 1.478991e+02 1 1
66MN1_M20 4 9 47 -45 45 left 1 5.000000e-01 /Users/lab/Documents/magic3Definitivo/stim/6_noeffect.mov 528 04-May-2017 18:07:31 -2.963669e+02 -8.997767e+01 0 0
66MN1_M20 4 10 6 45 -45 right 1 5.000000e-01 /Users/lab/Documents/magic3Definitivo/stim/1_noeffect.mov 509 04-May-2017 18:07:34 -1.158154e+02 6.095015e+00 1 0
66MN1_M20 4 11 53 45 45 right 1 5.000000e-01 /Users/lab/Documents/magic3Definitivo/stim/7_noeffect.mov 437 04-May-2017 18:07:37 7.288741e+01 3.270677e+02 0 0
66MN1_M20 4 12 29 45 45 right 1 5.000000e-01 /Users/lab/Documents/magic3Definitivo/stim/4_noeffect.mov 628 04-May-2017 18:07:54 -2.875332e+02 2.951933e+02 0 1
66MN1_M20 4 13 18 45 -45 right 1 5.000000e-01 /Users/lab/Documents/magic3Definitivo/stim/3_effect.mov 645 04-May-2017 18:07:56 3.283727e+02 -3.658237e+01 1 0
66MN1_M20 4 14 70 45 -45 right 1 5.000000e-01 /Users/lab/Documents/magic3Definitivo/stim/9_noeffect.mov 452 04-May-2017 18:07:59 1.654435e+02 -3.201041e+02 0 0
66MN1_M20 4 15 48 -45 -45 left 1 5.000000e-01 /Users/lab/Documents/magic3Definitivo/stim/6_noeffect.mov 544 04-May-2017 18:08:02 3.989222e+02 -2.587983e+02 0 0
66MN1_M20 4 16 8 -45 -45 left 1 5.000000e-01 /Users/lab/Documents/magic3Definitivo/stim/1_noeffect.mov 728 04-May-2017 18:08:27 2.735324e+02 -9.920514e+01 1 1
66MN1_M20 4 17 33 45 45 right 1 5.000000e-01 /Users/lab/Documents/magic3Definitivo/stim/5_effect.mov 544 04-May-2017 18:08:30 1.578684e+01 -3.404723e+02 1 0
66MN1_M20 4 18 41 45 45 left 0 5.000000e-01 /Users/lab/Documents/magic3Definitivo/stim/6_effect.mov 544 04-May-2017 18:08:33 -3.542889e+02 -2.434174e+02 1 0
66MN1_M20 4 19 24 -45 -45 left 1 5.000000e-01 /Users/lab/Documents/magic3Definitivo/stim/3_noeffect.mov 484 04-May-2017 18:08:36 -1.649062e+02 2.783095e+02 0 0
66MN1_M20 4 20 68 -45 -45 left 1 5.000000e-01 /Users/lab/Documents/magic3Definitivo/stim/9_effect.mov 776 04-May-2017 18:08:57 4.282038e+02 -2.680080e+02 1 1
66MN1_M20 4 21 15 -45 45 left 1 5.000000e-01 /Users/lab/Documents/magic3Definitivo/stim/2_noeffect.mov 745 04-May-2017 18:09:00 4.448900e+02 -4.605078e+01 0 0
66MN1_M20 4 22 45 45 45 right 1 5.000000e-01 /Users/lab/Documents/magic3Definitivo/stim/6_noeffect.mov 578 04-May-2017 18:09:03 -3.227695e+02 -3.502612e+02 0 0
66MN1_M20 4 23 67 -45 45 left 1 5.000000e-01 /Users/lab/Documents/magic3Definitivo/stim/9_effect.mov 611 04-May-2017 18:09:06 3.076363e+02 2.756760e+02 1 0
66MN1_M20 4 24 73 45 45 right 1 5.000000e-01 /Users/lab/Documents/magic3Definitivo/stim/10_effect.mov 627 04-May-2017 18:09:21 -1.029504e+02 4.463683e+02 1 1
66MN1_M20 4 25 51 -45 45 left 1 5.000000e-01 /Users/lab/Documents/magic3Definitivo/stim/7_effect.mov 467 04-May-2017 18:09:24 -1.749715e+02 -1.634189e+02 1 0
66MN1_M20 4 26 31 -45 45 left 1 5.000000e-01 /Users/lab/Documents/magic3Definitivo/stim/4_noeffect.mov 594 04-May-2017 18:09:26 2.960494e+02 -1.717546e+02 0 0
66MN1_M20 4 27 46 45 -45 right 1 5.000000e-01 /Users/lab/Documents/magic3Definitivo/stim/6_noeffect.mov 577 04-May-2017 18:09:29 -4.000588e+01 1.043085e+02 0 0
66MN1_M20 4 28 13 45 45 right 1 5.000000e-01 /Users/lab/Documents/magic3Definitivo/stim/2_noeffect.mov 645 04-May-2017 18:09:54 -4.411252e+02 -1.969075e+02 0 1
66MN1_M20 4 29 77 45 45 right 1 5.000000e-01 /Users/lab/Documents/magic3Definitivo/stim/10_noeffect.mov 762 04-May-2017 18:09:57 -7.647113e+01 -3.791370e+02 0 0
66MN1_M20 4 30 72 -45 -45 left 1 5.000000e-01 /Users/lab/Documents/magic3Definitivo/stim/9_noeffect.mov 528 04-May-2017 18:10:00 -4.110305e+02 1.209839e+02 0 0
66MN1_M20 4 31 30 45 -45 right 1 5.000000e-01 /Users/lab/Documents/magic3Definitivo/stim/4_noeffect.mov 492 04-May-2017 18:10:03 -3.038179e+02 -4.095427e+02 0 0
66MN1_M20 4 32 19 -45 45 left 1 5.000000e-01 /Users/lab/Documents/magic3Definitivo/stim/3_effect.mov 710 04-May-2017 18:10:21 -3.583296e+02 -4.828928e+02 1 1
66MN1_M20 4 33 38 45 -45 right 1 5.000000e-01 /Users/lab/Documents/magic3Definitivo/stim/5_noeffect.mov 644 04-May-2017 18:10:24 1.255249e+02 -4.642474e+02 0 0
66MN1_M20 4 34 54 45 -45 right 1 5.000000e-01 /Users/lab/Documents/magic3Definitivo/stim/7_noeffect.mov 595 04-May-2017 18:10:27 3.056874e+02 3.652176e+01 0 0
66MN1_M20 4 35 75 -45 45 left 1 5.000000e-01 /Users/lab/Documents/magic3Definitivo/stim/10_effect.mov 610 04-May-2017 18:10:30 1.537159e+01 4.524450e+02 1 0
66MN1_M20 4 36 71 -45 45 left 1 5.000000e-01 /Users/lab/Documents/magic3Definitivo/stim/9_noeffect.mov 644 04-May-2017 18:10:51 2.504354e+02 -4.085980e+02 0 1
66MN1_M20 4 37 2 45 -45 right 1 5.000000e-01 /Users/lab/Documents/magic3Definitivo/stim/1_effect.mov 544 04-May-2017 18:10:54 -5.117622e+01 1.076510e+02 1 0
66MN1_M20 4 38 25 45 45 right 1 5.000000e-01 /Users/lab/Documents/magic3Definitivo/stim/4_effect.mov 562 04-May-2017 18:10:57 3.509226e+02 2.672717e+02 1 0
66MN1_M20 4 39 11 -45 45 left 1 5.000000e-01 /Users/lab/Documents/magic3Definitivo/stim/2_effect.mov 561 04-May-2017 18:11:00 1.589833e+02 -8.958037e+01 1 0
66MN1_M20 4 40 61 45 45 right 1 5.000000e-01 /Users/lab/Documents/magic3Definitivo/stim/8_noeffect.mov 677 04-May-2017 18:11:21 -7.930004e+01 -4.055803e+02 0 1
66MN1_M20 4 41 5 45 45 right 1 5.000000e-01 /Users/lab/Documents/magic3Definitivo/stim/1_noeffect.mov 611 04-May-2017 18:11:24 -6.596688e+01 4.521721e+02 1 0
66MN1_M20 4 42 69 45 45 right 1 5.000000e-01 /Users/lab/Documents/magic3Definitivo/stim/9_noeffect.mov 495 04-May-2017 18:11:27 7.240182e+01 3.235715e+02 0 0
66MN1_M20 4 43 57 45 45 right 1 5.000000e-01 /Users/lab/Documents/magic3Definitivo/stim/8_effect.mov 561 04-May-2017 18:11:29 -2.743559e+02 4.811470e+02 1 0
66MN1_M20 4 44 76 -45 -45 left 1 5.000000e-01 /Users/lab/Documents/magic3Definitivo/stim/10_effect.mov 693 04-May-2017 18:11:44 3.430338e+02 -2.698557e+01 1 1
66MN1_M20 4 45 66 45 -45 right 1 5.000000e-01 /Users/lab/Documents/magic3Definitivo/stim/9_effect.mov 644 04-May-2017 18:11:47 -1.641917e+02 -3.801151e+01 1 0
66MN1_M20 4 46 37 45 45 right 1 5.000000e-01 /Users/lab/Documents/magic3Definitivo/stim/5_noeffect.mov 661 04-May-2017 18:11:50 -5.615435e+01 -3.667906e+02 0 0
66MN1_M20 4 47 44 -45 -45 left 1 5.000000e-01 /Users/lab/Documents/magic3Definitivo/stim/6_effect.mov 457 04-May-2017 18:11:53 -2.026777e+01 -4.913568e+02 1 0
66MN1_M20 4 48 52 -45 -45 left 1 5.000000e-01 /Users/lab/Documents/magic3Definitivo/stim/7_effect.mov 760 04-May-2017 18:12:12 -4.564790e+02 2.951065e+02 1 1
66MN1_M20 4 49 50 45 -45 right 1 5.000000e-01 /Users/lab/Documents/magic3Definitivo/stim/7_effect.mov 640 04-May-2017 18:12:15 -2.401356e+02 1.364769e+02 1 0
66MN1_M20 4 50 12 -45 -45 left 1 5.000000e-01 /Users/lab/Documents/magic3Definitivo/stim/2_effect.mov 562 04-May-2017 18:12:18 1.593939e+02 -4.599834e+02 1 0
66MN1_M20 4 51 74 45 -45 right 1 5.000000e-01 /Users/lab/Documents/magic3Definitivo/stim/10_effect.mov 512 04-May-2017 18:12:20 1.990069e+02 4.942289e+02 1 0
66MN1_M20 4 52 23 -45 45 left 1 5.000000e-01 /Users/lab/Documents/magic3Definitivo/stim/3_noeffect.mov 611 04-May-2017 18:12:39 4.011701e+02 4.530932e+02 0 1
66MN1_M20 4 53 20 -45 -45 left 1 5.000000e-01 /Users/lab/Documents/magic3Definitivo/stim/3_effect.mov 695 04-May-2017 18:12:42 4.888712e+02 4.959731e+02 1 0
66MN1_M20 4 54 32 -45 -45 left 1 5.000000e-01 /Users/lab/Documents/magic3Definitivo/stim/4_noeffect.mov 561 04-May-2017 18:12:45 4.832056e+02 -1.364237e+02 0 0
66MN1_M20 4 55 14 45 -45 right 1 5.000000e-01 /Users/lab/Documents/magic3Definitivo/stim/2_noeffect.mov 491 04-May-2017 18:12:47 -1.078216e+02 -4.117860e+02 0 0
66MN1_M20 4 56 62 45 -45 right 1 5.000000e-01 /Users/lab/Documents/magic3Definitivo/stim/8_noeffect.mov 596 04-May-2017 18:13:08 -2.592396e+02 4.688974e+02 0 1
66MN1_M20 4 57 58 45 -45 right 1 5.000000e-01 /Users/lab/Documents/magic3Definitivo/stim/8_effect.mov 595 04-May-2017 18:13:11 -1.548765e+02 4.893961e+02 1 0
66MN1_M20 4 58 39 -45 45 left 1 5.000000e-01 /Users/lab/Documents/magic3Definitivo/stim/5_noeffect.mov 447 04-May-2017 18:13:14 -2.862622e+01 -2.613495e+02 0 0
66MN1_M20 4 59 79 -45 45 left 1 5.000000e-01 /Users/lab/Documents/magic3Definitivo/stim/10_noeffect.mov 644 04-May-2017 18:13:17 1.541863e+02 -3.432538e+02 0 0
66MN1_M20 4 60 36 -45 45 left 1 5.000000e-01 /Users/lab/Documents/magic3Definitivo/stim/5_effect.mov 629 04-May-2017 18:13:34 4.012816e+02 -4.537585e+02 1 1
66MN1_M20 4 61 36 -45 -45 left 1 5.000000e-01 /Users/lab/Documents/magic3Definitivo/stim/5_effect.mov 427 04-May-2017 18:13:36 -8.056860e+01 -4.429697e+02 1 0
66MN1_M20 4 62 65 45 45 right 1 5.000000e-01 /Users/lab/Documents/magic3Definitivo/stim/9_effect.mov 612 04-May-2017 18:13:39 -1.966810e+02 -1.259615e+02 1 0
66MN1_M20 4 63 60 -45 -45 left 1 5.000000e-01 /Users/lab/Documents/magic3Definitivo/stim/8_effect.mov 611 04-May-2017 18:13:42 3.102916e+02 1.282994e+02 1 0
66MN1_M20 4 64 3 -45 45 left 1 5.000000e-01 /Users/lab/Documents/magic3Definitivo/stim/1_effect.mov 593 04-May-2017 18:14:07 -2.048267e+02 -8.981546e+01 1 1
66MN1_M20 4 65 17 45 45 right 1 5.000000e-01 /Users/lab/Documents/magic3Definitivo/stim/3_effect.mov 480 04-May-2017 18:14:10 2.131478e+02 -1.894186e+02 1 0
66MN1_M20 4 66 43 -45 45 left 1 5.000000e-01 /Users/lab/Documents/magic3Definitivo/stim/6_effect.mov 561 04-May-2017 18:14:13 -3.600075e+02 -2.740500e+02 1 0
66MN1_M20 4 67 16 -45 -45 left 1 5.000000e-01 /Users/lab/Documents/magic3Definitivo/stim/2_noeffect.mov 456 04-May-2017 18:14:15 3.884401e+01 -4.278070e+02 0 0
66MN1_M20 4 68 59 -45 45 left 1 5.000000e-01 /Users/lab/Documents/magic3Definitivo/stim/8_effect.mov 593 04-May-2017 18:14:36 -4.824371e+02 3.198928e+02 1 1
66MN1_M20 4 69 28 -45 -45 left 1 5.000000e-01 /Users/lab/Documents/magic3Definitivo/stim/4_effect.mov 895 04-May-2017 18:14:40 3.216302e+02 2.282843e+02 1 0
66MN1_M20 4 70 9 45 45 right 1 5.000000e-01 /Users/lab/Documents/magic3Definitivo/stim/2_effect.mov 476 04-May-2017 18:14:42 4.672088e+02 -4.515877e+02 1 0
66MN1_M20 4 71 63 -45 45 left 1 5.000000e-01 /Users/lab/Documents/magic3Definitivo/stim/8_noeffect.mov 428 04-May-2017 18:14:45 -1.249880e+02 2.307032e+02 0 0
66MN1_M20 4 72 21 45 45 right 1 5.000000e-01 /Users/lab/Documents/magic3Definitivo/stim/3_noeffect.mov 660 04-May-2017 18:15:03 -4.865724e+02 8.903891e+01 0 1
66MN1_M20 4 73 64 -45 -45 left 1 5.000000e-01 /Users/lab/Documents/magic3Definitivo/stim/8_noeffect.mov 449 04-May-2017 18:15:06 5.406157e+01 -1.010461e+02 0 0
66MN1_M20 4 74 55 -45 45 left 1 5.000000e-01 /Users/lab/Documents/magic3Definitivo/stim/7_noeffect.mov 572 04-May-2017 18:15:09 2.204291e+02 3.364076e+02 0 0
66MN1_M20 4 75 1 45 45 right 1 5.000000e-01 /Users/lab/Documents/magic3Definitivo/stim/1_effect.mov 478 04-May-2017 18:15:12 -9.552902e+01 -3.704409e+02 1 0
66MN1_M20 4 76 34 45 -45 right 1 5.000000e-01 /Users/lab/Documents/magic3Definitivo/stim/5_effect.mov 544 04-May-2017 18:15:28 -4.194464e+02 -1.681014e+02 1 1
66MN1_M20 4 77 56 -45 -45 left 1 5.000000e-01 /Users/lab/Documents/magic3Definitivo/stim/7_noeffect.mov 430 04-May-2017 18:15:31 -2.379090e+02 1.262594e+02 0 0
66MN1_M20 4 78 22 45 -45 right 1 5.000000e-01 /Users/lab/Documents/magic3Definitivo/stim/3_noeffect.mov 544 04-May-2017 18:15:34 4.207963e+02 1.092121e+02 0 0
66MN1_M20 4 79 40 -45 -45 left 1 5.000000e-01 /Users/lab/Documents/magic3Definitivo/stim/5_noeffect.mov 444 04-May-2017 18:15:37 -1.106246e+02 -3.150435e+02 0 0
66MN1_M20 4 80 27 -45 45 left 1 5.000000e-01 /Users/lab/Documents/magic3Definitivo/stim/4_effect.mov 595 04-May-2017 18:15:40 2.506631e+02 8.536990e+01 1 0
