subject_name subjectNumber block iTrial unshuffled_trial targetOrientation flankersOrientation response correct onscreen_stim_duration magicShows rt date time_of_day deltaX deltaY surpriseClip isClipTrial isSurprise
be_me_ 1999_11_29_754_f 910 3 1 0 16 -45 -45 NORESP 0 3 /Users/lab/Documents/experiments/2019/surprise/stim/2_noeffect.mov 2999 15-May-2019 12:01:19 -2.670313e+01 -2.873497e+01 0 1
be_me_ 1999_11_29_754_f 910 3 2 0 79 -45 45 left 1 3 /Users/lab/Documents/experiments/2019/surprise/stim/9_noeffect.mov 1518 15-May-2019 12:01:23 -8.796811e+01 -5.355263e+01 0 0
be_me_ 1999_11_29_754_f 910 3 3 0 49 45 45 right 1 3 /Users/lab/Documents/experiments/2019/surprise/stim/7_noeffect.mov 2717 15-May-2019 12:01:28 -3.763663e+02 7.901399e+01 0 0
be_me_ 1999_11_29_754_f 910 3 4 0 19 -45 45 left 1 3 /Users/lab/Documents/experiments/2019/surprise/stim/2_noeffect.mov 1761 15-May-2019 12:01:54 2.402772e+02 -5.709239e+01 0 1
be_me_ 1999_11_29_754_f 910 3 5 0 38 45 -45 right 1 3 /Users/lab/Documents/experiments/2019/surprise/stim/5_noeffect.mov 1485 15-May-2019 12:01:58 8.114335e+01 8.905393e+01 0 0
be_me_ 1999_11_29_754_f 910 3 6 0 36 -45 -45 left 1 3 /Users/lab/Documents/experiments/2019/surprise/stim/5_noeffect.mov 2855 15-May-2019 12:02:03 -1.370327e+02 -5.754114e+01 0 0
be_me_ 1999_11_29_754_f 910 3 7 0 59 -45 45 left 1 3 /Users/lab/Documents/experiments/2019/surprise/stim/8_noeffect.mov 1562 15-May-2019 12:02:07 4.717803e+02 3.913897e+02 0 0
be_me_ 1999_11_29_754_f 910 3 8 0 72 -45 -45 left 1 3 /Users/lab/Documents/experiments/2019/surprise/stim/9_noeffect.mov 1954 15-May-2019 12:02:30 4.181237e+01 1.870031e+02 0 1
be_me_ 1999_11_29_754_f 910 3 9 0 12 -45 -45 left 1 3 /Users/lab/Documents/experiments/2019/surprise/stim/2_noeffect.mov 967 15-May-2019 12:02:33 8.408750e+01 3.072635e+02 0 0
be_me_ 1999_11_29_754_f 910 3 10 0 70 45 -45 right 1 3 /Users/lab/Documents/experiments/2019/surprise/stim/9_noeffect.mov 804 15-May-2019 12:02:36 1.619777e+01 3.032445e+01 0 0
be_me_ 1999_11_29_754_f 910 3 11 0 43 -45 45 left 1 3 /Users/lab/Documents/experiments/2019/surprise/stim/6_noeffect.mov 601 15-May-2019 12:02:39 1.575420e+01 -9.315548e+01 0 0
be_me_ 1999_11_29_754_f 910 3 12 0 65 45 45 right 1 3 /Users/lab/Documents/experiments/2019/surprise/stim/9_noeffect.mov 972 15-May-2019 12:03:01 1.958907e+01 -2.097927e+02 0 1
be_me_ 1999_11_29_754_f 910 3 13 0 26 45 -45 right 1 3 /Users/lab/Documents/experiments/2019/surprise/stim/4_noeffect.mov 762 15-May-2019 12:03:04 -4.142668e+02 1.607454e+02 0 0
be_me_ 1999_11_29_754_f 910 3 14 0 25 45 45 right 1 3 /Users/lab/Documents/experiments/2019/surprise/stim/4_noeffect.mov 1129 15-May-2019 12:03:08 2.634806e+01 -3.076822e+02 0 0
be_me_ 1999_11_29_754_f 910 3 15 0 11 -45 45 left 1 3 /Users/lab/Documents/experiments/2019/surprise/stim/2_noeffect.mov 635 15-May-2019 12:03:11 4.164517e+02 -2.955363e+01 0 0
be_me_ 1999_11_29_754_f 910 3 16 0 62 45 -45 right 1 3 /Users/lab/Documents/experiments/2019/surprise/stim/8_noeffect.mov 1274 15-May-2019 12:03:32 -1.815629e+02 2.579211e+02 0 1
be_me_ 1999_11_29_754_f 910 3 17 0 50 45 -45 right 1 3 /Users/lab/Documents/experiments/2019/surprise/stim/7_noeffect.mov 875 15-May-2019 12:03:35 -3.261218e+02 3.429056e+02 0 0
be_me_ 1999_11_29_754_f 910 3 18 0 32 -45 -45 left 1 3 /Users/lab/Documents/experiments/2019/surprise/stim/4_noeffect.mov 1268 15-May-2019 12:03:39 -3.014660e+02 8.406489e+01 0 0
be_me_ 1999_11_29_754_f 910 3 19 0 53 45 45 right 1 3 /Users/lab/Documents/experiments/2019/surprise/stim/7_noeffect.mov 1044 15-May-2019 12:03:42 -1.448078e+02 4.067350e+02 0 0
be_me_ 1999_11_29_754_f 910 3 20 0 61 45 45 right 1 3 /Users/lab/Documents/experiments/2019/surprise/stim/8_noeffect.mov 878 15-May-2019 12:04:04 -2.168288e+01 -1.275126e+02 0 1
be_me_ 1999_11_29_754_f 910 3 21 0 56 -45 -45 left 1 3 /Users/lab/Documents/experiments/2019/surprise/stim/7_noeffect.mov 872 15-May-2019 12:04:07 3.284734e+02 3.317013e+02 0 0
be_me_ 1999_11_29_754_f 910 3 22 0 28 -45 -45 left 1 3 /Users/lab/Documents/experiments/2019/surprise/stim/4_noeffect.mov 534 15-May-2019 12:04:10 1.306054e+02 2.247943e+02 0 0
be_me_ 1999_11_29_754_f 910 3 23 0 31 -45 45 left 1 3 /Users/lab/Documents/experiments/2019/surprise/stim/4_noeffect.mov 642 15-May-2019 12:04:13 -1.962234e+02 3.009895e+02 0 0
be_me_ 1999_11_29_754_f 910 3 24 0 67 -45 45 left 1 3 /Users/lab/Documents/experiments/2019/surprise/stim/9_noeffect.mov 909 15-May-2019 12:04:35 -8.067733e+01 4.553378e+02 0 1
be_me_ 1999_11_29_754_f 910 3 25 0 58 45 -45 right 1 3 /Users/lab/Documents/experiments/2019/surprise/stim/8_noeffect.mov 1249 15-May-2019 12:04:38 4.683094e+02 4.350159e+02 0 0
be_me_ 1999_11_29_754_f 910 3 26 0 52 -45 -45 left 1 3 /Users/lab/Documents/experiments/2019/surprise/stim/7_noeffect.mov 1005 15-May-2019 12:04:42 4.448208e+02 -1.251350e+02 0 0
be_me_ 1999_11_29_754_f 910 3 27 0 48 -45 -45 left 1 3 /Users/lab/Documents/experiments/2019/surprise/stim/6_noeffect.mov 457 15-May-2019 12:04:44 9.457322e+01 9.913253e+01 0 0
be_me_ 1999_11_29_754_f 910 3 28 0 75 -45 45 left 1 3 /Users/lab/Documents/experiments/2019/surprise/stim/9_noeffect.mov 695 15-May-2019 12:05:06 -7.154638e+01 -8.083303e+01 0 1
be_me_ 1999_11_29_754_f 910 3 29 0 3 -45 45 left 1 3 /Users/lab/Documents/experiments/2019/surprise/stim/1_noeffect.mov 500 15-May-2019 12:05:09 3.659816e+01 2.544699e+02 0 0
be_me_ 1999_11_29_754_f 910 3 30 0 18 45 -45 right 1 3 /Users/lab/Documents/experiments/2019/surprise/stim/2_noeffect.mov 636 15-May-2019 12:05:12 3.832737e+01 3.089520e+02 0 0
be_me_ 1999_11_29_754_f 910 3 31 0 41 45 45 right 1 3 /Users/lab/Documents/experiments/2019/surprise/stim/6_noeffect.mov 722 15-May-2019 12:05:15 -1.097525e+02 3.997295e+02 0 0
be_me_ 1999_11_29_754_f 910 3 32 0 5 45 45 right 1 3 /Users/lab/Documents/experiments/2019/surprise/stim/1_noeffect.mov 801 15-May-2019 12:05:40 -2.297546e+01 -2.807881e+02 0 1
be_me_ 1999_11_29_754_f 910 3 33 0 54 45 -45 right 1 3 /Users/lab/Documents/experiments/2019/surprise/stim/7_noeffect.mov 575 15-May-2019 12:05:43 -3.068663e+02 -1.984148e+02 0 0
be_me_ 1999_11_29_754_f 910 3 34 0 44 -45 -45 left 1 3 /Users/lab/Documents/experiments/2019/surprise/stim/6_noeffect.mov 566 15-May-2019 12:05:46 2.011008e+02 3.465602e+02 0 0
be_me_ 1999_11_29_754_f 910 3 35 0 47 -45 45 left 1 3 /Users/lab/Documents/experiments/2019/surprise/stim/6_noeffect.mov 701 15-May-2019 12:05:49 -4.094111e+02 -3.942942e+02 0 0
be_me_ 1999_11_29_754_f 910 3 36 0 22 45 -45 right 1 3 /Users/lab/Documents/experiments/2019/surprise/stim/3_noeffect.mov 954 15-May-2019 12:06:07 4.317495e+02 -2.588705e+02 0 1
be_me_ 1999_11_29_754_f 910 3 37 0 23 -45 45 left 1 3 /Users/lab/Documents/experiments/2019/surprise/stim/3_noeffect.mov 452 15-May-2019 12:06:10 -7.756445e+01 -1.590689e+02 0 0
be_me_ 1999_11_29_754_f 910 3 38 0 9 45 45 right 1 3 /Users/lab/Documents/experiments/2019/surprise/stim/2_noeffect.mov 516 15-May-2019 12:06:13 1.381248e+02 -7.384876e+00 0 0
be_me_ 1999_11_29_754_f 910 3 39 0 78 45 -45 right 1 3 /Users/lab/Documents/experiments/2019/surprise/stim/9_noeffect.mov 556 15-May-2019 12:06:16 -1.892271e+02 -2.928940e+01 0 0
be_me_ 1999_11_29_754_f 910 3 40 0 51 -45 45 NORESP 0 3 /Users/lab/Documents/experiments/2019/surprise/stim/7_noeffect.mov 2998 15-May-2019 12:06:37 -2.412230e+02 4.121045e+02 0 1
be_me_ 1999_11_29_754_f 910 3 41 0 1 45 45 right 1 3 /Users/lab/Documents/experiments/2019/surprise/stim/1_noeffect.mov 767 15-May-2019 12:06:40 -3.665839e+02 4.050658e+02 0 0
be_me_ 1999_11_29_754_f 910 3 42 0 80 -45 -45 left 1 3 /Users/lab/Documents/experiments/2019/surprise/stim/9_noeffect.mov 514 15-May-2019 12:06:43 -2.433793e+02 -2.688132e+02 0 0
be_me_ 1999_11_29_754_f 910 3 43 0 15 -45 45 left 1 3 /Users/lab/Documents/experiments/2019/surprise/stim/2_noeffect.mov 590 15-May-2019 12:06:46 2.741061e+02 1.819814e+02 0 0
be_me_ 1999_11_29_754_f 910 3 44 0 66 45 -45 right 1 3 /Users/lab/Documents/experiments/2019/surprise/stim/9_noeffect.mov 736 15-May-2019 12:07:08 -4.844440e+02 2.928943e+02 0 1
be_me_ 1999_11_29_754_f 910 3 45 0 2 45 -45 right 1 3 /Users/lab/Documents/experiments/2019/surprise/stim/1_noeffect.mov 766 15-May-2019 12:07:11 4.153223e+02 -2.689017e+02 0 0
be_me_ 1999_11_29_754_f 910 3 46 0 29 45 45 right 1 3 /Users/lab/Documents/experiments/2019/surprise/stim/4_noeffect.mov 502 15-May-2019 12:07:14 -2.083540e+02 3.032590e+01 0 0
be_me_ 1999_11_29_754_f 910 3 47 0 34 45 -45 right 1 3 /Users/lab/Documents/experiments/2019/surprise/stim/5_noeffect.mov 753 15-May-2019 12:07:17 3.868551e+02 4.142517e+02 0 0
be_me_ 1999_11_29_754_f 910 3 48 0 46 45 -45 right 1 3 /Users/lab/Documents/experiments/2019/surprise/stim/6_noeffect.mov 752 15-May-2019 12:07:32 3.394829e+01 -3.231593e+02 0 1
be_me_ 1999_11_29_754_f 910 3 49 0 42 45 -45 right 1 3 /Users/lab/Documents/experiments/2019/surprise/stim/6_noeffect.mov 901 15-May-2019 12:07:35 4.646103e+02 -3.499303e+02 0 0
be_me_ 1999_11_29_754_f 910 3 50 0 30 45 -45 right 1 3 /Users/lab/Documents/experiments/2019/surprise/stim/4_noeffect.mov 929 15-May-2019 12:07:38 3.885670e+02 1.463086e+01 0 0
be_me_ 1999_11_29_754_f 910 3 51 0 14 45 -45 right 1 3 /Users/lab/Documents/experiments/2019/surprise/stim/2_noeffect.mov 711 15-May-2019 12:07:41 -3.803586e+02 4.840855e+02 0 0
be_me_ 1999_11_29_754_f 910 3 52 0 55 -45 45 left 1 3 /Users/lab/Documents/experiments/2019/surprise/stim/7_noeffect.mov 849 15-May-2019 12:08:00 -4.383504e+02 -3.494551e+02 0 1
be_me_ 1999_11_29_754_f 910 3 53 0 60 -45 -45 left 1 3 /Users/lab/Documents/experiments/2019/surprise/stim/8_noeffect.mov 811 15-May-2019 12:08:04 -3.450161e+02 2.643722e+02 0 0
be_me_ 1999_11_29_754_f 910 3 54 0 24 -45 -45 left 1 3 /Users/lab/Documents/experiments/2019/surprise/stim/3_noeffect.mov 1174 15-May-2019 12:08:07 -3.827499e+02 -4.809989e+02 0 0
be_me_ 1999_11_29_754_f 910 3 55 0 20 -45 -45 left 1 3 /Users/lab/Documents/experiments/2019/surprise/stim/2_noeffect.mov 521 15-May-2019 12:08:10 6.747594e+01 1.138360e+02 0 0
be_me_ 1999_11_29_754_f 910 3 56 0 68 -45 -45 left 1 3 /Users/lab/Documents/experiments/2019/surprise/stim/9_noeffect.mov 1153 15-May-2019 12:08:32 1.851443e+02 4.792414e+02 0 1
be_me_ 1999_11_29_754_f 910 3 57 0 57 45 45 right 1 3 /Users/lab/Documents/experiments/2019/surprise/stim/8_noeffect.mov 757 15-May-2019 12:08:35 -2.838896e+02 4.834655e+02 0 0
be_me_ 1999_11_29_754_f 910 3 58 0 37 45 45 right 1 3 /Users/lab/Documents/experiments/2019/surprise/stim/5_noeffect.mov 558 15-May-2019 12:08:38 -4.239237e+02 1.830850e+02 0 0
be_me_ 1999_11_29_754_f 910 3 59 0 7 -45 45 left 1 3 /Users/lab/Documents/experiments/2019/surprise/stim/1_noeffect.mov 567 15-May-2019 12:08:41 4.091705e+01 -3.687154e+02 0 0
be_me_ 1999_11_29_754_f 910 3 60 0 8 -45 -45 left 1 3 /Users/lab/Documents/experiments/2019/surprise/stim/1_noeffect.mov 1082 15-May-2019 12:09:06 2.519316e+02 -3.137164e+01 0 1
be_me_ 1999_11_29_754_f 910 3 61 0 13 45 45 right 1 3 /Users/lab/Documents/experiments/2019/surprise/stim/2_noeffect.mov 690 15-May-2019 12:09:09 1.260182e+02 -4.864787e+02 0 0
be_me_ 1999_11_29_754_f 910 3 62 0 77 45 45 right 1 3 /Users/lab/Documents/experiments/2019/surprise/stim/9_noeffect.mov 462 15-May-2019 12:09:12 -4.089575e+01 -4.897038e+02 0 0
be_me_ 1999_11_29_754_f 910 3 63 0 76 -45 -45 left 1 3 /Users/lab/Documents/experiments/2019/surprise/stim/9_noeffect.mov 754 15-May-2019 12:09:15 -4.978319e+02 4.945562e+01 0 0
be_me_ 1999_11_29_754_f 910 3 64 0 4 -45 -45 left 1 3 /Users/lab/Documents/experiments/2019/surprise/stim/1_noeffect.mov 1531 15-May-2019 12:09:41 4.170189e+02 2.356245e+02 0 1
be_me_ 1999_11_29_754_f 910 3 65 0 21 45 45 right 1 3 /Users/lab/Documents/experiments/2019/surprise/stim/3_noeffect.mov 507 15-May-2019 12:09:44 -2.626215e+02 -2.986045e+02 0 0
be_me_ 1999_11_29_754_f 910 3 66 0 45 45 45 right 1 3 /Users/lab/Documents/experiments/2019/surprise/stim/6_noeffect.mov 528 15-May-2019 12:09:47 -1.687031e+02 -4.367674e+02 0 0
be_me_ 1999_11_29_754_f 910 3 67 0 69 45 45 right 1 3 /Users/lab/Documents/experiments/2019/surprise/stim/9_noeffect.mov 532 15-May-2019 12:09:49 -9.863133e+01 3.147063e+02 0 0
be_me_ 1999_11_29_754_f 910 3 68 0 17 45 45 right 1 3 /Users/lab/Documents/experiments/2019/surprise/stim/2_noeffect.mov 706 15-May-2019 12:10:14 -7.203652e+01 -4.255463e+02 0 1
be_me_ 1999_11_29_754_f 910 3 69 0 63 -45 45 left 1 3 /Users/lab/Documents/experiments/2019/surprise/stim/8_noeffect.mov 918 15-May-2019 12:10:17 -3.596361e+02 -6.257423e+01 0 0
be_me_ 1999_11_29_754_f 910 3 70 0 10 45 -45 right 1 3 /Users/lab/Documents/experiments/2019/surprise/stim/2_noeffect.mov 666 15-May-2019 12:10:20 5.184896e+01 -4.994864e+01 0 0
be_me_ 1999_11_29_754_f 910 3 71 0 35 -45 45 left 1 3 /Users/lab/Documents/experiments/2019/surprise/stim/5_noeffect.mov 690 15-May-2019 12:10:23 4.818617e+02 -4.223692e+02 0 0
be_me_ 1999_11_29_754_f 910 3 72 0 40 -45 -45 left 1 3 /Users/lab/Documents/experiments/2019/surprise/stim/5_noeffect.mov 1140 15-May-2019 12:10:40 1.974626e+02 -3.257455e+02 0 1
be_me_ 1999_11_29_754_f 910 3 73 0 6 45 -45 right 1 3 /Users/lab/Documents/experiments/2019/surprise/stim/1_noeffect.mov 529 15-May-2019 12:10:43 -2.693755e+02 -2.050387e+02 0 0
be_me_ 1999_11_29_754_f 910 3 74 0 64 -45 -45 left 1 3 /Users/lab/Documents/experiments/2019/surprise/stim/8_noeffect.mov 958 15-May-2019 12:10:47 -4.089294e+02 -4.101393e+02 0 0
be_me_ 1999_11_29_754_f 910 3 75 0 74 45 -45 right 1 3 /Users/lab/Documents/experiments/2019/surprise/stim/9_noeffect.mov 707 15-May-2019 12:10:50 -3.434098e+02 2.308340e+02 0 0
be_me_ 1999_11_29_754_f 910 3 76 0 33 45 45 right 1 3 /Users/lab/Documents/experiments/2019/surprise/stim/5_noeffect.mov 808 15-May-2019 12:11:06 4.668173e+02 -1.940023e+02 0 1
be_me_ 1999_11_29_754_f 910 3 77 0 71 -45 45 left 1 3 /Users/lab/Documents/experiments/2019/surprise/stim/9_noeffect.mov 679 15-May-2019 12:11:09 3.924755e+02 3.036060e+02 0 0
be_me_ 1999_11_29_754_f 910 3 78 0 39 -45 45 left 1 3 /Users/lab/Documents/experiments/2019/surprise/stim/5_noeffect.mov 771 15-May-2019 12:11:12 -3.861571e+02 3.691795e+02 0 0
be_me_ 1999_11_29_754_f 910 3 79 0 27 -45 45 left 1 3 /Users/lab/Documents/experiments/2019/surprise/stim/4_noeffect.mov 696 15-May-2019 12:11:15 -4.946573e+02 -4.273341e+02 0 0
be_me_ 1999_11_29_754_f 910 3 80 0 73 45 45 right 1 3 /Users/lab/Documents/experiments/2019/surprise/stim/9_noeffect.mov 527 15-May-2019 12:11:18 4.475262e+02 2.033283e+02 0 0
