subject_name subjectNumber iTrial unshuffled_trial targetOrientation flankersOrientation response correct onscreen_stim_duration magicShows rt date time_of_day deltaX deltaY surpriseClip isClipTrial
90gt26_f20 145 1 33 45 45 right 1 5.000000e-01 /Users/lab/Documents/surprise_project/surprise/stim/5_effect.mov 1534 21-Mar-2018 11:02:14 -2.203639e+02 -8.876636e+01 1 1
90gt26_f20 145 2 48 -45 -45 left 1 5.000000e-01 /Users/lab/Documents/surprise_project/surprise/stim/6_noeffect.mov 649 21-Mar-2018 11:02:17 1.606384e+02 -3.867707e+02 0 0
90gt26_f20 145 3 14 45 -45 right 1 5.000000e-01 /Users/lab/Documents/surprise_project/surprise/stim/2_noeffect.mov 731 21-Mar-2018 11:02:20 2.927229e+02 5.781203e+01 0 0
90gt26_f20 145 4 57 45 45 right 1 5.000000e-01 /Users/lab/Documents/surprise_project/surprise/stim/8_effect.mov 847 21-Mar-2018 11:02:41 4.184948e+02 3.047062e+02 1 1
90gt26_f20 145 5 12 -45 -45 left 1 5.000000e-01 /Users/lab/Documents/surprise_project/surprise/stim/2_effect.mov 550 21-Mar-2018 11:02:44 3.552585e+02 -3.599547e+02 1 0
90gt26_f20 145 6 1 45 45 right 1 5.000000e-01 /Users/lab/Documents/surprise_project/surprise/stim/1_effect.mov 579 21-Mar-2018 11:02:47 -3.525052e+02 2.139244e+02 1 0
90gt26_f20 145 7 55 -45 45 left 1 5.000000e-01 /Users/lab/Documents/surprise_project/surprise/stim/7_noeffect.mov 852 21-Mar-2018 11:02:50 -3.207652e+01 2.059937e+02 0 0
90gt26_f20 145 8 17 45 45 right 1 5.000000e-01 /Users/lab/Documents/surprise_project/surprise/stim/3_effect.mov 881 21-Mar-2018 11:03:09 9.697442e+01 -3.760635e+02 1 1
90gt26_f20 145 9 13 45 45 right 1 5.000000e-01 /Users/lab/Documents/surprise_project/surprise/stim/2_noeffect.mov 717 21-Mar-2018 11:03:12 2.280899e+02 -4.361895e+02 0 0
90gt26_f20 145 10 10 45 -45 right 1 5.000000e-01 /Users/lab/Documents/surprise_project/surprise/stim/2_effect.mov 682 21-Mar-2018 11:03:15 -8.116855e+01 -1.391415e+02 1 0
90gt26_f20 145 11 39 -45 45 left 1 5.000000e-01 /Users/lab/Documents/surprise_project/surprise/stim/5_noeffect.mov 684 21-Mar-2018 11:03:18 2.730633e+02 4.147407e+02 0 0
90gt26_f20 145 12 30 45 -45 right 1 5.000000e-01 /Users/lab/Documents/surprise_project/surprise/stim/4_noeffect.mov 815 21-Mar-2018 11:03:36 6.727171e+01 -2.756840e+01 0 1
90gt26_f20 145 13 70 45 -45 right 1 5.000000e-01 /Users/lab/Documents/surprise_project/surprise/stim/9_noeffect.mov 685 21-Mar-2018 11:03:39 -3.593000e+02 3.564157e+01 0 0
90gt26_f20 145 14 22 45 -45 right 1 5.000000e-01 /Users/lab/Documents/surprise_project/surprise/stim/3_noeffect.mov 668 21-Mar-2018 11:03:42 -3.187357e+02 2.984379e+02 0 0
90gt26_f20 145 15 44 -45 -45 left 1 5.000000e-01 /Users/lab/Documents/surprise_project/surprise/stim/6_effect.mov 701 21-Mar-2018 11:03:45 -9.146034e+00 -3.635241e+02 1 0
90gt26_f20 145 16 4 -45 -45 right 0 5.000000e-01 /Users/lab/Documents/surprise_project/surprise/stim/1_effect.mov 930 21-Mar-2018 11:04:10 -1.159885e+01 3.084605e+02 1 1
90gt26_f20 145 17 38 45 -45 right 1 5.000000e-01 /Users/lab/Documents/surprise_project/surprise/stim/5_noeffect.mov 585 21-Mar-2018 11:04:13 2.338903e+01 1.583520e+02 0 0
90gt26_f20 145 18 66 45 -45 right 1 5.000000e-01 /Users/lab/Documents/surprise_project/surprise/stim/9_effect.mov 601 21-Mar-2018 11:04:16 -2.919252e+02 -1.452841e+02 1 0
90gt26_f20 145 19 5 45 45 left 0 5.000000e-01 /Users/lab/Documents/surprise_project/surprise/stim/1_noeffect.mov 768 21-Mar-2018 11:04:19 -4.509997e+02 2.111932e+02 1 0
90gt26_f20 145 20 8 -45 -45 left 1 5.000000e-01 /Users/lab/Documents/surprise_project/surprise/stim/1_noeffect.mov 1730 21-Mar-2018 11:04:45 4.770328e+02 -3.726851e+02 1 1
90gt26_f20 145 21 40 -45 -45 left 1 5.000000e-01 /Users/lab/Documents/surprise_project/surprise/stim/5_noeffect.mov 1401 21-Mar-2018 11:04:49 3.352785e+02 -2.455374e+02 0 0
90gt26_f20 145 22 15 -45 45 left 1 5.000000e-01 /Users/lab/Documents/surprise_project/surprise/stim/2_noeffect.mov 782 21-Mar-2018 11:04:52 -2.919726e+02 1.517233e+02 0 0
90gt26_f20 145 23 49 45 45 right 1 5.000000e-01 /Users/lab/Documents/surprise_project/surprise/stim/7_effect.mov 668 21-Mar-2018 11:04:55 1.064576e+02 -1.034492e+02 1 0
90gt26_f20 145 24 37 45 45 right 1 5.000000e-01 /Users/lab/Documents/surprise_project/surprise/stim/5_noeffect.mov 1179 21-Mar-2018 11:05:12 2.540450e+02 2.331156e+02 0 1
90gt26_f20 145 25 65 45 45 right 1 5.000000e-01 /Users/lab/Documents/surprise_project/surprise/stim/9_effect.mov 751 21-Mar-2018 11:05:15 -2.364439e+02 4.401865e+02 1 0
90gt26_f20 145 26 29 45 45 right 1 5.000000e-01 /Users/lab/Documents/surprise_project/surprise/stim/4_noeffect.mov 583 21-Mar-2018 11:05:18 -8.815202e+01 -4.811463e+02 0 0
90gt26_f20 145 27 68 -45 -45 left 1 5.000000e-01 /Users/lab/Documents/surprise_project/surprise/stim/9_effect.mov 968 21-Mar-2018 11:05:22 -4.370220e+02 -3.227381e+02 1 0
90gt26_f20 145 28 27 -45 45 left 1 5.000000e-01 /Users/lab/Documents/surprise_project/surprise/stim/4_effect.mov 915 21-Mar-2018 11:05:39 -1.954197e+02 4.405066e+02 1 1
90gt26_f20 145 29 54 45 -45 right 1 5.000000e-01 /Users/lab/Documents/surprise_project/surprise/stim/7_noeffect.mov 601 21-Mar-2018 11:05:42 -2.401098e+02 -4.309208e+02 0 0
90gt26_f20 145 30 64 -45 -45 left 1 5.000000e-01 /Users/lab/Documents/surprise_project/surprise/stim/8_noeffect.mov 651 21-Mar-2018 11:05:45 -2.630565e+02 -3.451333e+02 0 0
90gt26_f20 145 31 41 45 45 right 1 5.000000e-01 /Users/lab/Documents/surprise_project/surprise/stim/6_effect.mov 1017 21-Mar-2018 11:05:48 2.334636e+02 -9.397364e+01 1 0
90gt26_f20 145 32 69 45 45 right 1 5.000000e-01 /Users/lab/Documents/surprise_project/surprise/stim/9_noeffect.mov 1279 21-Mar-2018 11:06:11 4.556726e+02 2.933851e+02 0 1
90gt26_f20 145 33 23 -45 45 left 1 5.000000e-01 /Users/lab/Documents/surprise_project/surprise/stim/3_noeffect.mov 668 21-Mar-2018 11:06:14 7.085180e+01 4.000196e+02 0 0
90gt26_f20 145 34 21 45 45 right 1 5.000000e-01 /Users/lab/Documents/surprise_project/surprise/stim/3_noeffect.mov 1001 21-Mar-2018 11:06:17 -8.978714e+01 2.250945e+01 0 0
90gt26_f20 145 35 6 45 -45 right 1 5.000000e-01 /Users/lab/Documents/surprise_project/surprise/stim/1_noeffect.mov 667 21-Mar-2018 11:06:20 -4.388260e+02 1.528695e+02 1 0
90gt26_f20 145 36 45 45 45 right 1 5.000000e-01 /Users/lab/Documents/surprise_project/surprise/stim/6_noeffect.mov 780 21-Mar-2018 11:06:35 -3.066324e+02 3.662355e+02 0 1
90gt26_f20 145 37 32 -45 -45 left 1 5.000000e-01 /Users/lab/Documents/surprise_project/surprise/stim/4_noeffect.mov 551 21-Mar-2018 11:06:38 -2.460385e+02 2.658036e+02 0 0
90gt26_f20 145 38 3 -45 45 left 1 5.000000e-01 /Users/lab/Documents/surprise_project/surprise/stim/1_effect.mov 718 21-Mar-2018 11:06:41 -4.656258e+02 2.003454e+02 1 0
90gt26_f20 145 39 51 -45 45 left 1 5.000000e-01 /Users/lab/Documents/surprise_project/surprise/stim/7_effect.mov 802 21-Mar-2018 11:06:44 2.258115e+02 -2.842950e+02 1 0
90gt26_f20 145 40 47 -45 45 left 1 5.000000e-01 /Users/lab/Documents/surprise_project/surprise/stim/6_noeffect.mov 1031 21-Mar-2018 11:06:59 -3.633784e+02 4.395248e+02 0 1
90gt26_f20 145 41 36 -45 -45 left 1 5.000000e-01 /Users/lab/Documents/surprise_project/surprise/stim/5_effect.mov 1067 21-Mar-2018 11:07:03 1.558928e+02 -1.884543e+02 1 0
90gt26_f20 145 42 34 45 -45 right 1 5.000000e-01 /Users/lab/Documents/surprise_project/surprise/stim/5_effect.mov 768 21-Mar-2018 11:07:06 4.541416e+02 -3.740862e+02 1 0
90gt26_f20 145 43 58 45 -45 right 1 5.000000e-01 /Users/lab/Documents/surprise_project/surprise/stim/8_effect.mov 648 21-Mar-2018 11:07:09 -3.637358e+02 -1.346831e+02 1 0
90gt26_f20 145 44 24 -45 -45 left 1 5.000000e-01 /Users/lab/Documents/surprise_project/surprise/stim/3_noeffect.mov 796 21-Mar-2018 11:07:27 6.847421e+01 3.481190e+02 0 1
90gt26_f20 145 45 9 45 45 right 1 5.000000e-01 /Users/lab/Documents/surprise_project/surprise/stim/2_effect.mov 1052 21-Mar-2018 11:07:30 4.407769e+02 -1.595576e+02 1 0
90gt26_f20 145 46 61 45 45 right 1 5.000000e-01 /Users/lab/Documents/surprise_project/surprise/stim/8_noeffect.mov 1017 21-Mar-2018 11:07:34 -3.984751e+01 -2.794233e+02 0 0
90gt26_f20 145 47 50 45 -45 right 1 5.000000e-01 /Users/lab/Documents/surprise_project/surprise/stim/7_effect.mov 634 21-Mar-2018 11:07:37 -7.700483e+01 -3.244940e+02 1 0
90gt26_f20 145 48 25 45 45 right 1 5.000000e-01 /Users/lab/Documents/surprise_project/surprise/stim/4_effect.mov 1212 21-Mar-2018 11:07:54 1.029158e+02 -4.045902e+02 1 1
90gt26_f20 145 49 16 -45 -45 left 1 5.000000e-01 /Users/lab/Documents/surprise_project/surprise/stim/2_noeffect.mov 1166 21-Mar-2018 11:07:58 -6.113736e+01 -3.393609e+02 0 0
90gt26_f20 145 50 46 45 -45 right 1 5.000000e-01 /Users/lab/Documents/surprise_project/surprise/stim/6_noeffect.mov 601 21-Mar-2018 11:08:01 -3.276255e+01 2.439151e+02 0 0
90gt26_f20 145 51 60 -45 -45 right 0 5.000000e-01 /Users/lab/Documents/surprise_project/surprise/stim/8_effect.mov 851 21-Mar-2018 11:08:04 4.374861e+02 -1.482111e+02 1 0
90gt26_f20 145 52 18 45 -45 right 1 5.000000e-01 /Users/lab/Documents/surprise_project/surprise/stim/3_effect.mov 997 21-Mar-2018 11:08:23 2.013399e+02 -2.303708e+02 1 1
90gt26_f20 145 53 31 -45 45 left 1 5.000000e-01 /Users/lab/Documents/surprise_project/surprise/stim/4_noeffect.mov 968 21-Mar-2018 11:08:26 -4.395198e+02 1.327071e+02 0 0
90gt26_f20 145 54 62 45 -45 right 1 5.000000e-01 /Users/lab/Documents/surprise_project/surprise/stim/8_noeffect.mov 702 21-Mar-2018 11:08:29 2.295695e+02 -3.570655e+02 0 0
90gt26_f20 145 55 36 -45 45 left 1 5.000000e-01 /Users/lab/Documents/surprise_project/surprise/stim/5_effect.mov 833 21-Mar-2018 11:08:33 4.807165e+02 3.937606e+01 1 0
90gt26_f20 145 56 42 45 -45 right 1 5.000000e-01 /Users/lab/Documents/surprise_project/surprise/stim/6_effect.mov 847 21-Mar-2018 11:08:48 -3.546895e+02 -1.000442e+02 1 1
90gt26_f20 145 57 53 45 45 right 1 5.000000e-01 /Users/lab/Documents/surprise_project/surprise/stim/7_noeffect.mov 1153 21-Mar-2018 11:08:51 4.830486e+02 -1.727581e+01 0 0
90gt26_f20 145 58 67 -45 45 left 1 5.000000e-01 /Users/lab/Documents/surprise_project/surprise/stim/9_effect.mov 632 21-Mar-2018 11:08:54 1.834439e+02 2.456891e+02 1 0
90gt26_f20 145 59 72 -45 -45 left 1 5.000000e-01 /Users/lab/Documents/surprise_project/surprise/stim/9_noeffect.mov 651 21-Mar-2018 11:08:57 2.920275e+02 3.756688e+02 0 0
90gt26_f20 145 60 43 -45 45 left 1 5.000000e-01 /Users/lab/Documents/surprise_project/surprise/stim/6_effect.mov 813 21-Mar-2018 11:09:13 1.949904e+02 9.110456e+01 1 1
90gt26_f20 145 61 56 -45 -45 left 1 5.000000e-01 /Users/lab/Documents/surprise_project/surprise/stim/7_noeffect.mov 752 21-Mar-2018 11:09:16 5.721173e+01 8.688436e+01 0 0
90gt26_f20 145 62 7 -45 45 left 1 5.000000e-01 /Users/lab/Documents/surprise_project/surprise/stim/1_noeffect.mov 667 21-Mar-2018 11:09:19 -4.271688e+02 2.965652e+01 1 0
90gt26_f20 145 63 26 45 -45 right 1 5.000000e-01 /Users/lab/Documents/surprise_project/surprise/stim/4_effect.mov 651 21-Mar-2018 11:09:22 -2.009533e+02 -3.795652e+02 1 0
90gt26_f20 145 64 2 45 -45 right 1 5.000000e-01 /Users/lab/Documents/surprise_project/surprise/stim/1_effect.mov 813 21-Mar-2018 11:09:47 -6.973266e+01 4.969941e+02 1 1
90gt26_f20 145 65 71 -45 45 left 1 5.000000e-01 /Users/lab/Documents/surprise_project/surprise/stim/9_noeffect.mov 648 21-Mar-2018 11:09:50 -1.983698e+02 2.293773e+02 0 0
90gt26_f20 145 66 63 -45 45 left 1 5.000000e-01 /Users/lab/Documents/surprise_project/surprise/stim/8_noeffect.mov 617 21-Mar-2018 11:09:53 -2.005040e+02 2.350105e+02 0 0
90gt26_f20 145 67 59 -45 45 left 1 5.000000e-01 /Users/lab/Documents/surprise_project/surprise/stim/8_effect.mov 685 21-Mar-2018 11:09:56 3.345729e+02 -2.637255e+02 1 0
90gt26_f20 145 68 28 -45 -45 left 1 5.000000e-01 /Users/lab/Documents/surprise_project/surprise/stim/4_effect.mov 794 21-Mar-2018 11:10:13 1.462582e+02 -4.337745e+02 1 1
90gt26_f20 145 69 52 -45 -45 left 1 5.000000e-01 /Users/lab/Documents/surprise_project/surprise/stim/7_effect.mov 1186 21-Mar-2018 11:10:16 4.400902e+02 2.945310e+02 1 0
90gt26_f20 145 70 11 -45 45 left 1 5.000000e-01 /Users/lab/Documents/surprise_project/surprise/stim/2_effect.mov 667 21-Mar-2018 11:10:19 -2.670542e+02 -2.694011e+02 1 0
90gt26_f20 145 71 20 -45 -45 left 1 5.000000e-01 /Users/lab/Documents/surprise_project/surprise/stim/3_effect.mov 651 21-Mar-2018 11:10:22 3.508315e+02 3.398123e+02 1 0
90gt26_f20 145 72 19 -45 45 left 1 5.000000e-01 /Users/lab/Documents/surprise_project/surprise/stim/3_effect.mov 802 21-Mar-2018 11:10:25 3.536444e+02 -3.338349e+02 1 0
