subject_name subjectNumber block iTrial unshuffled_trial targetOrientation flankersOrientation response correct onscreen_stim_duration magicShows rt date time_of_day deltaX deltaY surpriseClip isClipTrial isSurprise
ma_go_1997_10_24_010_f 976 3 1 0 49 45 45 right 1 3 /Users/lab/Documents/experiments/2019/surprise/stim/7_noeffect.mov 1088 21-May-2019 16:24:09 -8.822861e+01 4.854147e+02 0 1
ma_go_1997_10_24_010_f 976 3 2 0 11 -45 45 left 1 3 /Users/lab/Documents/experiments/2019/surprise/stim/2_noeffect.mov 874 21-May-2019 16:24:12 2.453739e+02 1.059979e+02 0 0
ma_go_1997_10_24_010_f 976 3 3 0 40 -45 -45 left 1 3 /Users/lab/Documents/experiments/2019/surprise/stim/5_noeffect.mov 919 21-May-2019 16:24:15 3.996094e+02 -1.336187e+02 0 0
ma_go_1997_10_24_010_f 976 3 4 0 9 45 45 right 1 3 /Users/lab/Documents/experiments/2019/surprise/stim/2_noeffect.mov 1241 21-May-2019 16:24:40 -3.707342e+02 8.328239e+01 0 1
ma_go_1997_10_24_010_f 976 3 5 0 46 45 -45 right 1 3 /Users/lab/Documents/experiments/2019/surprise/stim/6_noeffect.mov 1779 21-May-2019 16:24:44 5.602338e+01 1.887407e+02 0 0
ma_go_1997_10_24_010_f 976 3 6 0 59 -45 45 left 1 3 /Users/lab/Documents/experiments/2019/surprise/stim/8_noeffect.mov 2450 21-May-2019 16:24:49 1.306758e+02 -2.374564e+02 0 0
ma_go_1997_10_24_010_f 976 3 7 0 19 -45 45 left 1 3 /Users/lab/Documents/experiments/2019/surprise/stim/2_noeffect.mov 691 21-May-2019 16:24:52 -9.728925e+01 1.722968e+01 0 0
ma_go_1997_10_24_010_f 976 3 8 0 79 -45 45 right 0 3 /Users/lab/Documents/experiments/2019/surprise/stim/9_noeffect.mov 2777 21-May-2019 16:25:16 4.740459e+02 1.384271e+02 0 1
ma_go_1997_10_24_010_f 976 3 9 0 80 -45 -45 right 0 3 /Users/lab/Documents/experiments/2019/surprise/stim/9_noeffect.mov 1120 21-May-2019 16:25:19 -3.427940e+02 -4.120325e+02 0 0
ma_go_1997_10_24_010_f 976 3 10 0 31 -45 45 NORESP 0 3 /Users/lab/Documents/experiments/2019/surprise/stim/4_noeffect.mov 2999 21-May-2019 16:25:25 1.772269e+02 -1.422464e+01 0 0
ma_go_1997_10_24_010_f 976 3 11 0 5 45 45 right 1 3 /Users/lab/Documents/experiments/2019/surprise/stim/1_noeffect.mov 2343 21-May-2019 16:25:29 -8.625930e+01 -2.501368e+02 0 0
ma_go_1997_10_24_010_f 976 3 12 0 75 -45 45 left 1 3 /Users/lab/Documents/experiments/2019/surprise/stim/9_noeffect.mov 1327 21-May-2019 16:25:52 6.631648e+01 -4.692640e+02 0 1
ma_go_1997_10_24_010_f 976 3 13 0 63 -45 45 left 1 3 /Users/lab/Documents/experiments/2019/surprise/stim/8_noeffect.mov 677 21-May-2019 16:25:55 2.796097e+02 4.681503e+01 0 0
ma_go_1997_10_24_010_f 976 3 14 0 27 -45 45 left 1 3 /Users/lab/Documents/experiments/2019/surprise/stim/4_noeffect.mov 785 21-May-2019 16:25:58 1.490507e+02 -2.454689e+01 0 0
ma_go_1997_10_24_010_f 976 3 15 0 60 -45 -45 left 1 3 /Users/lab/Documents/experiments/2019/surprise/stim/8_noeffect.mov 2990 21-May-2019 16:26:03 1.865432e+02 -1.581961e+02 0 0
ma_go_1997_10_24_010_f 976 3 16 0 50 45 -45 right 1 3 /Users/lab/Documents/experiments/2019/surprise/stim/7_noeffect.mov 2918 21-May-2019 16:26:24 -2.674784e+02 -2.188184e+01 0 1
ma_go_1997_10_24_010_f 976 3 17 0 28 -45 -45 left 1 3 /Users/lab/Documents/experiments/2019/surprise/stim/4_noeffect.mov 2073 21-May-2019 16:26:29 3.433696e+02 1.015325e+01 0 0
ma_go_1997_10_24_010_f 976 3 18 0 1 45 45 right 1 3 /Users/lab/Documents/experiments/2019/surprise/stim/1_noeffect.mov 1627 21-May-2019 16:26:33 4.154091e+01 -4.077413e+02 0 0
ma_go_1997_10_24_010_f 976 3 19 0 34 45 -45 right 1 3 /Users/lab/Documents/experiments/2019/surprise/stim/5_noeffect.mov 606 21-May-2019 16:26:36 2.165204e+02 -4.018064e+02 0 0
ma_go_1997_10_24_010_f 976 3 20 0 13 45 45 right 1 3 /Users/lab/Documents/experiments/2019/surprise/stim/2_noeffect.mov 1217 21-May-2019 16:27:01 -3.278322e+02 4.711518e+02 0 1
ma_go_1997_10_24_010_f 976 3 21 0 29 45 45 right 1 3 /Users/lab/Documents/experiments/2019/surprise/stim/4_noeffect.mov 813 21-May-2019 16:27:04 2.485370e+02 2.606091e+02 0 0
ma_go_1997_10_24_010_f 976 3 22 0 43 -45 45 left 1 3 /Users/lab/Documents/experiments/2019/surprise/stim/6_noeffect.mov 586 21-May-2019 16:27:07 -8.989198e+01 -1.304872e+02 0 0
ma_go_1997_10_24_010_f 976 3 23 0 71 -45 45 left 1 3 /Users/lab/Documents/experiments/2019/surprise/stim/9_noeffect.mov 630 21-May-2019 16:27:10 3.761881e+02 -3.585131e+02 0 0
ma_go_1997_10_24_010_f 976 3 24 0 77 45 45 right 1 3 /Users/lab/Documents/experiments/2019/surprise/stim/9_noeffect.mov 1209 21-May-2019 16:27:32 3.215648e+02 4.348252e+02 0 1
ma_go_1997_10_24_010_f 976 3 25 0 62 45 -45 right 1 3 /Users/lab/Documents/experiments/2019/surprise/stim/8_noeffect.mov 602 21-May-2019 16:27:35 3.421275e+02 -2.544477e+02 0 0
ma_go_1997_10_24_010_f 976 3 26 0 6 45 -45 right 1 3 /Users/lab/Documents/experiments/2019/surprise/stim/1_noeffect.mov 673 21-May-2019 16:27:38 -3.959695e+02 -1.505606e+02 0 0
ma_go_1997_10_24_010_f 976 3 27 0 72 -45 -45 right 0 3 /Users/lab/Documents/experiments/2019/surprise/stim/9_noeffect.mov 755 21-May-2019 16:27:41 -4.610117e+02 1.977245e+02 0 0
ma_go_1997_10_24_010_f 976 3 28 0 25 45 45 left 0 3 /Users/lab/Documents/experiments/2019/surprise/stim/4_noeffect.mov 1425 21-May-2019 16:27:59 4.993708e+02 3.895993e+02 0 1
ma_go_1997_10_24_010_f 976 3 29 0 30 45 -45 right 1 3 /Users/lab/Documents/experiments/2019/surprise/stim/4_noeffect.mov 701 21-May-2019 16:28:02 -9.687440e+01 3.094524e+02 0 0
ma_go_1997_10_24_010_f 976 3 30 0 61 45 45 right 1 3 /Users/lab/Documents/experiments/2019/surprise/stim/8_noeffect.mov 629 21-May-2019 16:28:05 -3.503194e+02 3.808164e+02 0 0
ma_go_1997_10_24_010_f 976 3 31 0 66 45 -45 right 1 3 /Users/lab/Documents/experiments/2019/surprise/stim/9_noeffect.mov 685 21-May-2019 16:28:08 1.568080e+02 -1.978783e+02 0 0
ma_go_1997_10_24_010_f 976 3 32 0 24 -45 -45 left 1 3 /Users/lab/Documents/experiments/2019/surprise/stim/3_noeffect.mov 2033 21-May-2019 16:28:27 -4.691149e+02 -1.490688e+00 0 1
ma_go_1997_10_24_010_f 976 3 33 0 44 -45 -45 right 0 3 /Users/lab/Documents/experiments/2019/surprise/stim/6_noeffect.mov 620 21-May-2019 16:28:30 1.378568e+02 3.950831e+02 0 0
ma_go_1997_10_24_010_f 976 3 34 0 36 -45 -45 left 1 3 /Users/lab/Documents/experiments/2019/surprise/stim/5_noeffect.mov 714 21-May-2019 16:28:33 -4.909862e+02 -4.644353e+02 0 0
ma_go_1997_10_24_010_f 976 3 35 0 38 45 -45 right 1 3 /Users/lab/Documents/experiments/2019/surprise/stim/5_noeffect.mov 1182 21-May-2019 16:28:37 3.224021e+02 6.396802e+01 0 0
ma_go_1997_10_24_010_f 976 3 36 0 12 -45 -45 left 1 3 /Users/lab/Documents/experiments/2019/surprise/stim/2_noeffect.mov 1010 21-May-2019 16:29:02 3.513836e+02 1.140083e+02 0 1
ma_go_1997_10_24_010_f 976 3 37 0 70 45 -45 right 1 3 /Users/lab/Documents/experiments/2019/surprise/stim/9_noeffect.mov 1101 21-May-2019 16:29:05 1.144188e+02 4.664077e+02 0 0
ma_go_1997_10_24_010_f 976 3 38 0 8 -45 -45 left 1 3 /Users/lab/Documents/experiments/2019/surprise/stim/1_noeffect.mov 710 21-May-2019 16:29:08 -3.647466e+01 2.738679e+02 0 0
ma_go_1997_10_24_010_f 976 3 39 0 74 45 -45 right 1 3 /Users/lab/Documents/experiments/2019/surprise/stim/9_noeffect.mov 1094 21-May-2019 16:29:12 3.014689e+02 4.622787e+02 0 0
ma_go_1997_10_24_010_f 976 3 40 0 4 -45 -45 left 1 3 /Users/lab/Documents/experiments/2019/surprise/stim/1_noeffect.mov 913 21-May-2019 16:29:37 4.413027e+02 3.269042e+01 0 1
ma_go_1997_10_24_010_f 976 3 41 0 47 -45 45 left 1 3 /Users/lab/Documents/experiments/2019/surprise/stim/6_noeffect.mov 962 21-May-2019 16:29:40 1.731791e+02 3.745735e+02 0 0
ma_go_1997_10_24_010_f 976 3 42 0 3 -45 45 left 1 3 /Users/lab/Documents/experiments/2019/surprise/stim/1_noeffect.mov 702 21-May-2019 16:29:43 -3.663034e+02 2.337600e+02 0 0
ma_go_1997_10_24_010_f 976 3 43 0 73 45 45 right 1 3 /Users/lab/Documents/experiments/2019/surprise/stim/9_noeffect.mov 886 21-May-2019 16:29:46 1.814088e+02 -4.037473e+01 0 0
ma_go_1997_10_24_010_f 976 3 44 0 76 -45 -45 left 1 3 /Users/lab/Documents/experiments/2019/surprise/stim/9_noeffect.mov 1143 21-May-2019 16:30:09 -2.242943e+02 1.172209e+02 0 1
ma_go_1997_10_24_010_f 976 3 45 0 45 45 45 right 1 3 /Users/lab/Documents/experiments/2019/surprise/stim/6_noeffect.mov 911 21-May-2019 16:30:12 1.371421e+02 3.263996e+01 0 0
ma_go_1997_10_24_010_f 976 3 46 0 35 -45 45 left 1 3 /Users/lab/Documents/experiments/2019/surprise/stim/5_noeffect.mov 803 21-May-2019 16:30:15 -3.167829e+02 2.713766e+02 0 0
ma_go_1997_10_24_010_f 976 3 47 0 14 45 -45 right 1 3 /Users/lab/Documents/experiments/2019/surprise/stim/2_noeffect.mov 1009 21-May-2019 16:30:18 -4.169340e+02 4.551052e+02 0 0
ma_go_1997_10_24_010_f 976 3 48 0 52 -45 -45 left 1 3 /Users/lab/Documents/experiments/2019/surprise/stim/7_noeffect.mov 840 21-May-2019 16:30:38 -2.884628e+02 3.994951e+02 0 1
ma_go_1997_10_24_010_f 976 3 49 0 21 45 45 right 1 3 /Users/lab/Documents/experiments/2019/surprise/stim/3_noeffect.mov 1134 21-May-2019 16:30:41 -3.901960e+02 -5.062545e+01 0 0
ma_go_1997_10_24_010_f 976 3 50 0 78 45 -45 right 1 3 /Users/lab/Documents/experiments/2019/surprise/stim/9_noeffect.mov 735 21-May-2019 16:30:44 -1.000116e+02 -2.499093e+02 0 0
ma_go_1997_10_24_010_f 976 3 51 0 37 45 45 right 1 3 /Users/lab/Documents/experiments/2019/surprise/stim/5_noeffect.mov 835 21-May-2019 16:30:48 1.112889e+02 -1.160507e+02 0 0
ma_go_1997_10_24_010_f 976 3 52 0 17 45 45 right 1 3 /Users/lab/Documents/experiments/2019/surprise/stim/2_noeffect.mov 951 21-May-2019 16:31:13 -8.372503e+01 -3.269878e+02 0 1
ma_go_1997_10_24_010_f 976 3 53 0 51 -45 45 left 1 3 /Users/lab/Documents/experiments/2019/surprise/stim/7_noeffect.mov 966 21-May-2019 16:31:16 -1.079505e+02 3.028507e+00 0 0
ma_go_1997_10_24_010_f 976 3 54 0 39 -45 45 left 1 3 /Users/lab/Documents/experiments/2019/surprise/stim/5_noeffect.mov 791 21-May-2019 16:31:19 -2.781342e+02 2.484925e+02 0 0
ma_go_1997_10_24_010_f 976 3 55 0 58 45 -45 right 1 3 /Users/lab/Documents/experiments/2019/surprise/stim/8_noeffect.mov 598 21-May-2019 16:31:22 2.326181e+02 -3.398680e+02 0 0
ma_go_1997_10_24_010_f 976 3 56 0 2 45 -45 right 1 3 /Users/lab/Documents/experiments/2019/surprise/stim/1_noeffect.mov 714 21-May-2019 16:31:47 9.607719e+01 2.682652e+01 0 1
ma_go_1997_10_24_010_f 976 3 57 0 67 -45 45 left 1 3 /Users/lab/Documents/experiments/2019/surprise/stim/9_noeffect.mov 1249 21-May-2019 16:31:51 -2.226562e+02 2.972726e+02 0 0
ma_go_1997_10_24_010_f 976 3 58 0 48 -45 -45 left 1 3 /Users/lab/Documents/experiments/2019/surprise/stim/6_noeffect.mov 824 21-May-2019 16:31:54 -1.387491e+02 3.004436e+02 0 0
ma_go_1997_10_24_010_f 976 3 59 0 22 45 -45 right 1 3 /Users/lab/Documents/experiments/2019/surprise/stim/3_noeffect.mov 696 21-May-2019 16:31:57 3.584686e+02 4.357238e+02 0 0
ma_go_1997_10_24_010_f 976 3 60 0 64 -45 -45 left 1 3 /Users/lab/Documents/experiments/2019/surprise/stim/8_noeffect.mov 832 21-May-2019 16:32:18 -2.545745e+02 3.524249e+02 0 1
ma_go_1997_10_24_010_f 976 3 61 0 20 -45 -45 left 1 3 /Users/lab/Documents/experiments/2019/surprise/stim/2_noeffect.mov 772 21-May-2019 16:32:21 4.854824e+02 -4.570647e+02 0 0
ma_go_1997_10_24_010_f 976 3 62 0 55 -45 45 left 1 3 /Users/lab/Documents/experiments/2019/surprise/stim/7_noeffect.mov 647 21-May-2019 16:32:24 -6.287961e+00 -2.350465e+02 0 0
ma_go_1997_10_24_010_f 976 3 63 0 65 45 45 right 1 3 /Users/lab/Documents/experiments/2019/surprise/stim/9_noeffect.mov 1199 21-May-2019 16:32:28 -4.539698e+02 1.983485e+02 0 0
ma_go_1997_10_24_010_f 976 3 64 0 18 45 -45 right 1 3 /Users/lab/Documents/experiments/2019/surprise/stim/2_noeffect.mov 837 21-May-2019 16:32:53 -3.709038e+02 2.439873e+02 0 1
ma_go_1997_10_24_010_f 976 3 65 0 15 -45 45 left 1 3 /Users/lab/Documents/experiments/2019/surprise/stim/2_noeffect.mov 904 21-May-2019 16:32:56 -1.158908e+02 -1.582052e+02 0 0
ma_go_1997_10_24_010_f 976 3 66 0 41 45 45 right 1 3 /Users/lab/Documents/experiments/2019/surprise/stim/6_noeffect.mov 843 21-May-2019 16:32:59 2.676902e+02 -3.532484e+02 0 0
ma_go_1997_10_24_010_f 976 3 67 0 10 45 -45 right 1 3 /Users/lab/Documents/experiments/2019/surprise/stim/2_noeffect.mov 749 21-May-2019 16:33:02 -4.863150e+02 2.166597e+02 0 0
ma_go_1997_10_24_010_f 976 3 68 0 32 -45 -45 left 1 3 /Users/lab/Documents/experiments/2019/surprise/stim/4_noeffect.mov 897 21-May-2019 16:33:20 1.606207e+02 1.744897e+00 0 1
ma_go_1997_10_24_010_f 976 3 69 0 56 -45 -45 left 1 3 /Users/lab/Documents/experiments/2019/surprise/stim/7_noeffect.mov 792 21-May-2019 16:33:23 4.515621e+02 4.187660e+01 0 0
ma_go_1997_10_24_010_f 976 3 70 0 23 -45 45 left 1 3 /Users/lab/Documents/experiments/2019/surprise/stim/3_noeffect.mov 1465 21-May-2019 16:33:27 3.051718e+02 -5.517353e+01 0 0
ma_go_1997_10_24_010_f 976 3 71 0 69 45 45 right 1 3 /Users/lab/Documents/experiments/2019/surprise/stim/9_noeffect.mov 2137 21-May-2019 16:33:31 -1.817240e+02 1.653242e+01 0 0
ma_go_1997_10_24_010_f 976 3 72 0 26 45 -45 right 1 3 /Users/lab/Documents/experiments/2019/surprise/stim/4_noeffect.mov 1371 21-May-2019 16:33:49 -2.470657e+02 -2.103448e+01 0 1
ma_go_1997_10_24_010_f 976 3 73 0 57 45 45 right 1 3 /Users/lab/Documents/experiments/2019/surprise/stim/8_noeffect.mov 1094 21-May-2019 16:33:52 -3.017685e+02 1.478702e+02 0 0
ma_go_1997_10_24_010_f 976 3 74 0 54 45 -45 right 1 3 /Users/lab/Documents/experiments/2019/surprise/stim/7_noeffect.mov 2563 21-May-2019 16:33:57 5.307573e+01 -4.863108e+02 0 0
ma_go_1997_10_24_010_f 976 3 75 0 7 -45 45 NORESP 0 3 /Users/lab/Documents/experiments/2019/surprise/stim/1_noeffect.mov 2998 21-May-2019 16:34:03 2.576486e+02 -8.976247e+01 0 0
ma_go_1997_10_24_010_f 976 3 76 0 53 45 45 right 1 3 /Users/lab/Documents/experiments/2019/surprise/stim/7_noeffect.mov 1293 21-May-2019 16:34:22 -3.366490e+02 -2.050976e+02 0 1
ma_go_1997_10_24_010_f 976 3 77 0 68 -45 -45 left 1 3 /Users/lab/Documents/experiments/2019/surprise/stim/9_noeffect.mov 1468 21-May-2019 16:34:26 8.742090e+01 2.171780e+02 0 0
ma_go_1997_10_24_010_f 976 3 78 0 33 45 45 right 1 3 /Users/lab/Documents/experiments/2019/surprise/stim/5_noeffect.mov 1384 21-May-2019 16:34:30 -1.447778e+02 -4.226154e+02 0 0
ma_go_1997_10_24_010_f 976 3 79 0 16 -45 -45 left 1 3 /Users/lab/Documents/experiments/2019/surprise/stim/2_noeffect.mov 1697 21-May-2019 16:34:34 4.106749e+02 3.622388e+02 0 0
ma_go_1997_10_24_010_f 976 3 80 0 42 45 -45 right 1 3 /Users/lab/Documents/experiments/2019/surprise/stim/6_noeffect.mov 1445 21-May-2019 16:34:38 6.382134e+01 -4.994439e+02 0 0
