subject_name subjectNumber block iTrial unshuffled_trial targetOrientation flankersOrientation response correct onscreen_stim_duration magicShows rt date time_of_day deltaX deltaY surpriseClip isClipTrial isSurprise
be_me_ 1999_11_29_754_f 911 3 1 1 60 -45 -45 left 1 3 /Users/lab/Documents/experiments/2019/surprise/stim/8_effect.mov 1060 15-May-2019 12:12:10 -1.501708e+02 -1.652428e+02 1 1
be_me_ 1999_11_29_754_f 911 3 2 1 52 -45 -45 left 1 3 /Users/lab/Documents/experiments/2019/surprise/stim/7_effect.mov 992 15-May-2019 12:12:13 3.790719e+02 -1.036015e+02 1 0
be_me_ 1999_11_29_754_f 911 3 3 1 30 45 -45 right 1 3 /Users/lab/Documents/experiments/2019/surprise/stim/4_noeffect.mov 522 15-May-2019 12:12:16 -1.672147e+02 -9.830970e+01 0 0
be_me_ 1999_11_29_754_f 911 3 4 1 47 -45 45 left 1 3 /Users/lab/Documents/experiments/2019/surprise/stim/6_noeffect.mov 1003 15-May-2019 12:12:31 -4.435706e+02 -2.200472e+02 0 1
be_me_ 1999_11_29_754_f 911 3 5 1 67 -45 45 left 1 3 /Users/lab/Documents/experiments/2019/surprise/stim/9_effect.mov 541 15-May-2019 12:12:34 -3.859703e+02 -2.613673e+02 1 0
be_me_ 1999_11_29_754_f 911 3 6 1 26 45 -45 right 1 3 /Users/lab/Documents/experiments/2019/surprise/stim/4_effect.mov 730 15-May-2019 12:12:37 -4.451316e+01 2.102360e+02 1 0
be_me_ 1999_11_29_754_f 911 3 7 1 68 -45 -45 left 1 3 /Users/lab/Documents/experiments/2019/surprise/stim/9_effect.mov 701 15-May-2019 12:12:40 4.874076e+02 3.060068e+02 1 0
be_me_ 1999_11_29_754_f 911 3 8 1 13 45 45 right 1 3 /Users/lab/Documents/experiments/2019/surprise/stim/2_noeffect.mov 905 15-May-2019 12:13:05 3.159201e+02 -2.815541e+01 0 1
be_me_ 1999_11_29_754_f 911 3 9 1 42 45 -45 right 1 3 /Users/lab/Documents/experiments/2019/surprise/stim/6_effect.mov 576 15-May-2019 12:13:08 -4.672151e+02 -6.951789e+01 1 0
be_me_ 1999_11_29_754_f 911 3 10 1 11 -45 45 left 1 3 /Users/lab/Documents/experiments/2019/surprise/stim/2_effect.mov 734 15-May-2019 12:13:11 3.020813e+02 -3.842421e+01 1 0
be_me_ 1999_11_29_754_f 911 3 11 1 22 45 -45 right 1 3 /Users/lab/Documents/experiments/2019/surprise/stim/3_noeffect.mov 644 15-May-2019 12:13:14 5.223984e+01 -4.107880e+02 0 0
be_me_ 1999_11_29_754_f 911 3 12 1 36 -45 45 left 1 3 /Users/lab/Documents/experiments/2019/surprise/stim/5_effect.mov 726 15-May-2019 12:13:31 -3.739221e+02 -4.015527e+01 1 1
be_me_ 1999_11_29_754_f 911 3 13 1 20 -45 -45 left 1 3 /Users/lab/Documents/experiments/2019/surprise/stim/3_effect.mov 739 15-May-2019 12:13:34 1.841625e+02 4.325486e+02 1 0
be_me_ 1999_11_29_754_f 911 3 14 1 40 -45 -45 left 1 3 /Users/lab/Documents/experiments/2019/surprise/stim/5_noeffect.mov 635 15-May-2019 12:13:37 -2.797751e+02 2.793825e+02 0 0
be_me_ 1999_11_29_754_f 911 3 15 1 25 45 45 right 1 3 /Users/lab/Documents/experiments/2019/surprise/stim/4_effect.mov 789 15-May-2019 12:13:40 4.728839e+02 9.503417e+01 1 0
be_me_ 1999_11_29_754_f 911 3 16 1 31 -45 45 left 1 3 /Users/lab/Documents/experiments/2019/surprise/stim/4_noeffect.mov 1012 15-May-2019 12:13:58 -1.872038e+02 -4.286705e+02 0 1
be_me_ 1999_11_29_754_f 911 3 17 1 51 -45 45 left 1 3 /Users/lab/Documents/experiments/2019/surprise/stim/7_effect.mov 478 15-May-2019 12:14:01 -2.124904e+02 -4.408998e+02 1 0
be_me_ 1999_11_29_754_f 911 3 18 1 28 -45 -45 left 1 3 /Users/lab/Documents/experiments/2019/surprise/stim/4_effect.mov 625 15-May-2019 12:14:04 4.090306e+02 -9.315153e+01 1 0
be_me_ 1999_11_29_754_f 911 3 19 1 55 -45 45 left 1 3 /Users/lab/Documents/experiments/2019/surprise/stim/7_noeffect.mov 410 15-May-2019 12:14:06 -2.280943e+02 -2.075276e+02 0 0
be_me_ 1999_11_29_754_f 911 3 20 1 36 -45 -45 left 1 3 /Users/lab/Documents/experiments/2019/surprise/stim/5_effect.mov 1044 15-May-2019 12:14:23 -3.104525e+02 3.217299e+02 1 1
be_me_ 1999_11_29_754_f 911 3 21 1 33 45 45 right 1 3 /Users/lab/Documents/experiments/2019/surprise/stim/5_effect.mov 510 15-May-2019 12:14:26 1.210565e+02 -1.178390e+01 1 0
be_me_ 1999_11_29_754_f 911 3 22 1 17 45 45 right 1 3 /Users/lab/Documents/experiments/2019/surprise/stim/3_effect.mov 600 15-May-2019 12:14:29 -4.775224e+02 -4.600375e+02 1 0
be_me_ 1999_11_29_754_f 911 3 23 1 48 -45 -45 left 1 3 /Users/lab/Documents/experiments/2019/surprise/stim/6_noeffect.mov 531 15-May-2019 12:14:32 1.289631e+02 -3.642529e+02 0 0
be_me_ 1999_11_29_754_f 911 3 24 1 71 -45 45 left 1 3 /Users/lab/Documents/experiments/2019/surprise/stim/9_noeffect.mov 1046 15-May-2019 12:14:54 1.033762e+02 1.593464e+02 0 1
be_me_ 1999_11_29_754_f 911 3 25 1 64 -45 -45 left 1 3 /Users/lab/Documents/experiments/2019/surprise/stim/8_noeffect.mov 517 15-May-2019 12:14:57 -5.271231e+01 -4.085285e+02 0 0
be_me_ 1999_11_29_754_f 911 3 26 1 61 45 45 right 1 3 /Users/lab/Documents/experiments/2019/surprise/stim/8_noeffect.mov 601 15-May-2019 12:15:00 2.635351e+02 -2.410233e+02 0 0
be_me_ 1999_11_29_754_f 911 3 27 1 66 45 -45 right 1 3 /Users/lab/Documents/experiments/2019/surprise/stim/9_effect.mov 448 15-May-2019 12:15:03 -4.731316e+01 -3.633418e+02 1 0
be_me_ 1999_11_29_754_f 911 3 28 1 44 -45 -45 left 1 3 /Users/lab/Documents/experiments/2019/surprise/stim/6_effect.mov 1309 15-May-2019 12:15:19 -3.655661e+02 -2.289202e+02 1 1
be_me_ 1999_11_29_754_f 911 3 29 1 70 45 -45 right 1 3 /Users/lab/Documents/experiments/2019/surprise/stim/9_noeffect.mov 663 15-May-2019 12:15:22 -4.871514e+02 2.450489e+02 0 0
be_me_ 1999_11_29_754_f 911 3 30 1 62 45 -45 right 1 3 /Users/lab/Documents/experiments/2019/surprise/stim/8_noeffect.mov 521 15-May-2019 12:15:25 -4.593493e+01 -9.271711e+01 0 0
be_me_ 1999_11_29_754_f 911 3 31 1 72 -45 -45 left 1 3 /Users/lab/Documents/experiments/2019/surprise/stim/9_noeffect.mov 1105 15-May-2019 12:15:28 -2.433872e+02 -4.036484e+02 0 0
be_me_ 1999_11_29_754_f 911 3 32 1 69 45 45 right 1 3 /Users/lab/Documents/experiments/2019/surprise/stim/9_noeffect.mov 854 15-May-2019 12:15:50 -3.738954e+01 2.448215e+02 0 1
be_me_ 1999_11_29_754_f 911 3 33 1 10 45 -45 right 1 3 /Users/lab/Documents/experiments/2019/surprise/stim/2_effect.mov 497 15-May-2019 12:15:53 2.267139e+02 4.604925e+01 1 0
be_me_ 1999_11_29_754_f 911 3 34 1 54 45 -45 right 1 3 /Users/lab/Documents/experiments/2019/surprise/stim/7_noeffect.mov 610 15-May-2019 12:15:56 -1.329580e+02 -2.177009e+02 0 0
be_me_ 1999_11_29_754_f 911 3 35 1 43 -45 45 right 0 3 /Users/lab/Documents/experiments/2019/surprise/stim/6_effect.mov 363 15-May-2019 12:15:58 8.479116e+01 5.384759e+01 1 0
be_me_ 1999_11_29_754_f 911 3 36 1 50 45 -45 NORESP 0 3 /Users/lab/Documents/experiments/2019/surprise/stim/7_effect.mov 2999 15-May-2019 12:16:20 -1.436669e+02 -1.747475e+02 1 1
be_me_ 1999_11_29_754_f 911 3 37 1 8 -45 -45 left 1 3 /Users/lab/Documents/experiments/2019/surprise/stim/1_noeffect.mov 516 15-May-2019 12:16:23 -3.207058e+02 1.714593e+02 1 0
be_me_ 1999_11_29_754_f 911 3 38 1 29 45 45 right 1 3 /Users/lab/Documents/experiments/2019/surprise/stim/4_noeffect.mov 425 15-May-2019 12:16:26 2.238640e+02 -2.167824e+02 0 0
be_me_ 1999_11_29_754_f 911 3 39 1 19 -45 45 left 1 3 /Users/lab/Documents/experiments/2019/surprise/stim/3_effect.mov 533 15-May-2019 12:16:28 1.577362e+02 -1.782945e+02 1 0
be_me_ 1999_11_29_754_f 911 3 40 1 2 45 -45 right 1 3 /Users/lab/Documents/experiments/2019/surprise/stim/1_effect.mov 814 15-May-2019 12:16:54 2.064363e+02 -3.735476e+02 1 1
be_me_ 1999_11_29_754_f 911 3 41 1 41 45 45 right 1 3 /Users/lab/Documents/experiments/2019/surprise/stim/6_effect.mov 537 15-May-2019 12:16:56 1.694808e+02 2.333125e+02 1 0
be_me_ 1999_11_29_754_f 911 3 42 1 27 -45 45 left 1 3 /Users/lab/Documents/experiments/2019/surprise/stim/4_effect.mov 632 15-May-2019 12:16:59 -4.570620e+02 -2.003406e+02 1 0
be_me_ 1999_11_29_754_f 911 3 43 1 59 -45 45 left 1 3 /Users/lab/Documents/experiments/2019/surprise/stim/8_effect.mov 555 15-May-2019 12:17:02 -8.194035e+01 -2.609864e+02 1 0
be_me_ 1999_11_29_754_f 911 3 44 1 9 45 45 right 1 3 /Users/lab/Documents/experiments/2019/surprise/stim/2_effect.mov 947 15-May-2019 12:17:28 -3.194938e+02 -4.086913e+02 1 1
be_me_ 1999_11_29_754_f 911 3 45 1 21 45 45 right 1 3 /Users/lab/Documents/experiments/2019/surprise/stim/3_noeffect.mov 467 15-May-2019 12:17:31 5.263373e+01 -4.922161e+02 0 0
be_me_ 1999_11_29_754_f 911 3 46 1 7 -45 45 left 1 3 /Users/lab/Documents/experiments/2019/surprise/stim/1_noeffect.mov 512 15-May-2019 12:17:34 -4.195312e+02 -2.868312e+02 1 0
be_me_ 1999_11_29_754_f 911 3 47 1 16 -45 -45 left 1 3 /Users/lab/Documents/experiments/2019/surprise/stim/2_noeffect.mov 514 15-May-2019 12:17:36 3.127330e+02 -2.409204e+02 0 0
be_me_ 1999_11_29_754_f 911 3 48 1 5 45 45 right 1 3 /Users/lab/Documents/experiments/2019/surprise/stim/1_noeffect.mov 790 15-May-2019 12:18:01 6.444058e+01 4.039515e+02 1 1
be_me_ 1999_11_29_754_f 911 3 49 1 39 -45 45 left 1 3 /Users/lab/Documents/experiments/2019/surprise/stim/5_noeffect.mov 534 15-May-2019 12:18:04 -7.103366e+01 1.047361e+02 0 0
be_me_ 1999_11_29_754_f 911 3 50 1 15 -45 45 left 1 3 /Users/lab/Documents/experiments/2019/surprise/stim/2_noeffect.mov 551 15-May-2019 12:18:07 3.333953e+02 1.156231e+02 0 0
be_me_ 1999_11_29_754_f 911 3 51 1 46 45 -45 right 1 3 /Users/lab/Documents/experiments/2019/surprise/stim/6_noeffect.mov 598 15-May-2019 12:18:10 -4.166783e+02 -2.235356e+02 0 0
be_me_ 1999_11_29_754_f 911 3 52 1 1 45 45 right 1 3 /Users/lab/Documents/experiments/2019/surprise/stim/1_effect.mov 851 15-May-2019 12:18:35 5.710861e+00 -3.329582e+01 1 1
be_me_ 1999_11_29_754_f 911 3 53 1 23 -45 45 left 1 3 /Users/lab/Documents/experiments/2019/surprise/stim/3_noeffect.mov 443 15-May-2019 12:18:38 -9.490923e+01 -1.785943e+01 0 0
be_me_ 1999_11_29_754_f 911 3 54 1 58 45 -45 right 1 3 /Users/lab/Documents/experiments/2019/surprise/stim/8_effect.mov 558 15-May-2019 12:18:41 -1.166874e+02 -3.347122e+02 1 0
be_me_ 1999_11_29_754_f 911 3 55 1 53 45 45 right 1 3 /Users/lab/Documents/experiments/2019/surprise/stim/7_noeffect.mov 749 15-May-2019 12:18:44 2.598647e+02 1.223556e+02 0 0
be_me_ 1999_11_29_754_f 911 3 56 1 57 45 45 right 1 3 /Users/lab/Documents/experiments/2019/surprise/stim/8_effect.mov 860 15-May-2019 12:19:05 -3.521522e+02 6.670593e+01 1 1
be_me_ 1999_11_29_754_f 911 3 57 1 4 -45 -45 left 1 3 /Users/lab/Documents/experiments/2019/surprise/stim/1_effect.mov 955 15-May-2019 12:19:09 4.638705e+02 -2.201883e+01 1 0
be_me_ 1999_11_29_754_f 911 3 58 1 49 45 45 right 1 3 /Users/lab/Documents/experiments/2019/surprise/stim/7_effect.mov 925 15-May-2019 12:19:12 2.937094e+01 2.820763e+02 1 0
be_me_ 1999_11_29_754_f 911 3 59 1 3 -45 45 left 1 3 /Users/lab/Documents/experiments/2019/surprise/stim/1_effect.mov 506 15-May-2019 12:19:15 -4.628423e+00 -2.048799e+02 1 0
be_me_ 1999_11_29_754_f 911 3 60 1 56 -45 -45 left 1 3 /Users/lab/Documents/experiments/2019/surprise/stim/7_noeffect.mov 832 15-May-2019 12:19:34 -3.020381e+02 -8.667321e+01 0 1
be_me_ 1999_11_29_754_f 911 3 61 1 32 -45 -45 left 1 3 /Users/lab/Documents/experiments/2019/surprise/stim/4_noeffect.mov 473 15-May-2019 12:19:37 -1.021942e+02 -2.701183e+02 0 0
be_me_ 1999_11_29_754_f 911 3 62 1 18 45 -45 right 1 3 /Users/lab/Documents/experiments/2019/surprise/stim/3_effect.mov 505 15-May-2019 12:19:39 -2.075224e+02 -2.773760e+02 1 0
be_me_ 1999_11_29_754_f 911 3 63 1 65 45 45 right 1 3 /Users/lab/Documents/experiments/2019/surprise/stim/9_effect.mov 529 15-May-2019 12:19:42 -3.483001e+02 2.322297e+02 1 0
be_me_ 1999_11_29_754_f 911 3 64 1 24 -45 -45 left 1 3 /Users/lab/Documents/experiments/2019/surprise/stim/3_noeffect.mov 805 15-May-2019 12:20:01 9.374059e+01 1.176966e+02 0 1
be_me_ 1999_11_29_754_f 911 3 65 1 63 -45 45 left 1 3 /Users/lab/Documents/experiments/2019/surprise/stim/8_noeffect.mov 546 15-May-2019 12:20:04 4.087795e+02 7.349073e+00 0 0
be_me_ 1999_11_29_754_f 911 3 66 1 34 45 -45 right 1 3 /Users/lab/Documents/experiments/2019/surprise/stim/5_effect.mov 608 15-May-2019 12:20:07 2.691544e+02 -3.417619e+02 1 0
be_me_ 1999_11_29_754_f 911 3 67 1 37 45 45 right 1 3 /Users/lab/Documents/experiments/2019/surprise/stim/5_noeffect.mov 618 15-May-2019 12:20:10 2.217599e+02 4.773823e+02 0 0
be_me_ 1999_11_29_754_f 911 3 68 1 14 45 -45 right 1 3 /Users/lab/Documents/experiments/2019/surprise/stim/2_noeffect.mov 503 15-May-2019 12:20:34 -7.124565e+01 -8.239832e+01 0 1
be_me_ 1999_11_29_754_f 911 3 69 1 38 45 -45 right 1 3 /Users/lab/Documents/experiments/2019/surprise/stim/5_noeffect.mov 478 15-May-2019 12:20:37 -9.211145e+01 -2.198994e+02 0 0
be_me_ 1999_11_29_754_f 911 3 70 1 12 -45 -45 left 1 3 /Users/lab/Documents/experiments/2019/surprise/stim/2_effect.mov 1135 15-May-2019 12:20:40 4.908435e+02 1.347060e+02 1 0
be_me_ 1999_11_29_754_f 911 3 71 1 45 45 45 right 1 3 /Users/lab/Documents/experiments/2019/surprise/stim/6_noeffect.mov 553 15-May-2019 12:20:43 3.042926e+02 -4.335986e+02 0 0
be_me_ 1999_11_29_754_f 911 3 72 1 6 45 -45 right 1 3 /Users/lab/Documents/experiments/2019/surprise/stim/1_noeffect.mov 548 15-May-2019 12:20:46 -3.964373e+02 1.585869e+02 1 0
