subject_name subjectNumber iTrial unshuffled_trial targetOrientation flankersOrientation response correct onscreen_stim_duration magicShows rt date time_of_day deltaX deltaY surpriseClip isClipTrial
61cm28_f21 162 1 39 -45 45 left 1 5.000000e-01 /Users/lab/Documents/surprise_project/surprise/stim/5_noeffect.mov 2300 21-Mar-2018 13:57:46 -9.023898e+01 -7.531926e+01 0 1
61cm28_f21 162 2 50 45 -45 right 1 5.000000e-01 /Users/lab/Documents/surprise_project/surprise/stim/7_effect.mov 1700 21-Mar-2018 13:57:50 9.587201e+01 8.145622e+00 1 0
61cm28_f21 162 3 33 45 45 right 1 5.000000e-01 /Users/lab/Documents/surprise_project/surprise/stim/5_effect.mov 1301 21-Mar-2018 13:57:54 -3.186142e+02 -4.659411e+02 1 0
61cm28_f21 162 4 72 -45 -45 left 1 5.000000e-01 /Users/lab/Documents/surprise_project/surprise/stim/9_noeffect.mov 910 21-Mar-2018 13:58:16 -3.200546e+02 -4.951752e+02 0 1
61cm28_f21 162 5 19 -45 45 left 1 5.000000e-01 /Users/lab/Documents/surprise_project/surprise/stim/3_effect.mov 898 21-Mar-2018 13:58:19 2.845098e+02 3.947567e+02 1 0
61cm28_f21 162 6 30 45 -45 right 1 5.000000e-01 /Users/lab/Documents/surprise_project/surprise/stim/4_noeffect.mov 798 21-Mar-2018 13:58:23 4.962570e+02 4.498693e+02 0 0
61cm28_f21 162 7 7 -45 45 left 1 5.000000e-01 /Users/lab/Documents/surprise_project/surprise/stim/1_noeffect.mov 849 21-Mar-2018 13:58:26 3.016236e+02 1.612031e+02 1 0
61cm28_f21 162 8 4 -45 -45 left 1 5.000000e-01 /Users/lab/Documents/surprise_project/surprise/stim/1_effect.mov 1097 21-Mar-2018 13:58:51 3.153871e+02 3.357020e+02 1 1
61cm28_f21 162 9 45 45 45 right 1 5.000000e-01 /Users/lab/Documents/surprise_project/surprise/stim/6_noeffect.mov 900 21-Mar-2018 13:58:55 2.239882e+01 2.876616e+02 0 0
61cm28_f21 162 10 57 45 45 right 1 5.000000e-01 /Users/lab/Documents/surprise_project/surprise/stim/8_effect.mov 584 21-Mar-2018 13:58:58 1.070161e+02 2.282253e+02 1 0
61cm28_f21 162 11 26 45 -45 right 1 5.000000e-01 /Users/lab/Documents/surprise_project/surprise/stim/4_effect.mov 682 21-Mar-2018 13:59:01 -1.062502e+02 -4.287695e+02 1 0
61cm28_f21 162 12 23 -45 45 left 1 5.000000e-01 /Users/lab/Documents/surprise_project/surprise/stim/3_noeffect.mov 830 21-Mar-2018 13:59:19 -1.630081e+02 3.767045e+02 0 1
61cm28_f21 162 13 15 -45 45 left 1 5.000000e-01 /Users/lab/Documents/surprise_project/surprise/stim/2_noeffect.mov 816 21-Mar-2018 13:59:22 -3.605633e+02 -1.053223e+02 0 0
61cm28_f21 162 14 36 -45 -45 left 1 5.000000e-01 /Users/lab/Documents/surprise_project/surprise/stim/5_effect.mov 714 21-Mar-2018 13:59:26 3.027323e+02 1.590821e+02 1 0
61cm28_f21 162 15 63 -45 45 left 1 5.000000e-01 /Users/lab/Documents/surprise_project/surprise/stim/8_noeffect.mov 683 21-Mar-2018 13:59:29 -1.446062e+02 4.928369e+01 0 0
61cm28_f21 162 16 32 -45 -45 left 1 5.000000e-01 /Users/lab/Documents/surprise_project/surprise/stim/4_noeffect.mov 715 21-Mar-2018 13:59:46 -4.423743e+02 3.608603e+02 0 1
61cm28_f21 162 17 69 45 45 right 1 5.000000e-01 /Users/lab/Documents/surprise_project/surprise/stim/9_noeffect.mov 816 21-Mar-2018 13:59:49 -2.100952e+02 1.539416e+02 0 0
61cm28_f21 162 18 29 45 45 right 1 5.000000e-01 /Users/lab/Documents/surprise_project/surprise/stim/4_noeffect.mov 699 21-Mar-2018 13:59:52 -2.247165e+02 2.001634e+02 0 0
61cm28_f21 162 19 9 45 45 right 1 5.000000e-01 /Users/lab/Documents/surprise_project/surprise/stim/2_effect.mov 598 21-Mar-2018 13:59:55 -7.090468e+01 3.699093e+01 1 0
61cm28_f21 162 20 43 -45 45 left 1 5.000000e-01 /Users/lab/Documents/surprise_project/surprise/stim/6_effect.mov 846 21-Mar-2018 14:00:11 3.039245e+02 -4.127174e+02 1 1
61cm28_f21 162 21 51 -45 45 left 1 5.000000e-01 /Users/lab/Documents/surprise_project/surprise/stim/7_effect.mov 783 21-Mar-2018 14:00:14 1.421828e+02 -5.904841e+01 1 0
61cm28_f21 162 22 60 -45 -45 left 1 5.000000e-01 /Users/lab/Documents/surprise_project/surprise/stim/8_effect.mov 615 21-Mar-2018 14:00:17 -3.759088e+02 1.336238e+02 1 0
61cm28_f21 162 23 55 -45 45 left 1 5.000000e-01 /Users/lab/Documents/surprise_project/surprise/stim/7_noeffect.mov 598 21-Mar-2018 14:00:20 4.239982e+02 -4.637939e+02 0 0
61cm28_f21 162 24 37 45 45 right 1 5.000000e-01 /Users/lab/Documents/surprise_project/surprise/stim/5_noeffect.mov 997 21-Mar-2018 14:00:37 3.763486e+02 2.538347e+02 0 1
61cm28_f21 162 25 56 -45 -45 left 1 5.000000e-01 /Users/lab/Documents/surprise_project/surprise/stim/7_noeffect.mov 665 21-Mar-2018 14:00:40 -3.066659e+02 -4.125286e+02 0 0
61cm28_f21 162 26 71 -45 45 left 1 5.000000e-01 /Users/lab/Documents/surprise_project/surprise/stim/9_noeffect.mov 583 21-Mar-2018 14:00:43 -4.766997e+02 1.517856e+02 0 0
61cm28_f21 162 27 66 45 -45 right 1 5.000000e-01 /Users/lab/Documents/surprise_project/surprise/stim/9_effect.mov 748 21-Mar-2018 14:00:46 -7.150778e+01 3.280787e+02 1 0
61cm28_f21 162 28 48 -45 -45 left 1 5.000000e-01 /Users/lab/Documents/surprise_project/surprise/stim/6_noeffect.mov 713 21-Mar-2018 14:01:01 -2.493945e+02 -2.575042e+02 0 1
61cm28_f21 162 29 54 45 -45 right 1 5.000000e-01 /Users/lab/Documents/surprise_project/surprise/stim/7_noeffect.mov 632 21-Mar-2018 14:01:04 2.218959e+02 -4.931151e+02 0 0
61cm28_f21 162 30 38 45 -45 right 1 5.000000e-01 /Users/lab/Documents/surprise_project/surprise/stim/5_noeffect.mov 681 21-Mar-2018 14:01:07 -3.369869e+02 -3.105241e+02 0 0
61cm28_f21 162 31 70 45 -45 right 1 5.000000e-01 /Users/lab/Documents/surprise_project/surprise/stim/9_noeffect.mov 648 21-Mar-2018 14:01:10 -5.113098e+01 4.172964e+02 0 0
61cm28_f21 162 32 12 -45 -45 left 1 5.000000e-01 /Users/lab/Documents/surprise_project/surprise/stim/2_effect.mov 830 21-Mar-2018 14:01:36 -4.026392e+02 2.618448e+02 1 1
61cm28_f21 162 33 62 45 -45 right 1 5.000000e-01 /Users/lab/Documents/surprise_project/surprise/stim/8_noeffect.mov 600 21-Mar-2018 14:01:39 2.177167e+02 3.832174e+02 0 0
61cm28_f21 162 34 65 45 45 right 1 5.000000e-01 /Users/lab/Documents/surprise_project/surprise/stim/9_effect.mov 715 21-Mar-2018 14:01:42 -1.012376e+02 -1.094175e+02 1 0
61cm28_f21 162 35 14 45 -45 right 1 5.000000e-01 /Users/lab/Documents/surprise_project/surprise/stim/2_noeffect.mov 515 21-Mar-2018 14:01:45 -1.045167e+02 7.489009e+01 0 0
61cm28_f21 162 36 64 -45 -45 left 1 5.000000e-01 /Users/lab/Documents/surprise_project/surprise/stim/8_noeffect.mov 730 21-Mar-2018 14:02:06 1.979359e+02 2.811049e+02 0 1
61cm28_f21 162 37 27 -45 45 left 1 5.000000e-01 /Users/lab/Documents/surprise_project/surprise/stim/4_effect.mov 581 21-Mar-2018 14:02:09 -1.354905e+02 -4.238876e+02 1 0
61cm28_f21 162 38 44 -45 -45 left 1 5.000000e-01 /Users/lab/Documents/surprise_project/surprise/stim/6_effect.mov 732 21-Mar-2018 14:02:12 2.336597e+02 -2.194300e+02 1 0
61cm28_f21 162 39 13 45 45 right 1 5.000000e-01 /Users/lab/Documents/surprise_project/surprise/stim/2_noeffect.mov 564 21-Mar-2018 14:02:15 5.085833e+01 1.977299e+02 0 0
61cm28_f21 162 40 16 -45 -45 left 1 5.000000e-01 /Users/lab/Documents/surprise_project/surprise/stim/2_noeffect.mov 813 21-Mar-2018 14:02:40 -1.522260e+02 -2.607800e+02 0 1
61cm28_f21 162 41 2 45 -45 right 1 5.000000e-01 /Users/lab/Documents/surprise_project/surprise/stim/1_effect.mov 633 21-Mar-2018 14:02:43 4.076309e+02 -8.815982e+01 1 0
61cm28_f21 162 42 67 -45 45 left 1 5.000000e-01 /Users/lab/Documents/surprise_project/surprise/stim/9_effect.mov 515 21-Mar-2018 14:02:45 -7.737077e+01 -4.092782e+02 1 0
61cm28_f21 162 43 68 -45 -45 left 1 5.000000e-01 /Users/lab/Documents/surprise_project/surprise/stim/9_effect.mov 532 21-Mar-2018 14:02:48 -2.153496e+02 3.961999e+02 1 0
61cm28_f21 162 44 52 -45 -45 left 1 5.000000e-01 /Users/lab/Documents/surprise_project/surprise/stim/7_effect.mov 647 21-Mar-2018 14:03:08 -2.437314e+02 -4.251680e+02 1 1
61cm28_f21 162 45 61 45 45 right 1 5.000000e-01 /Users/lab/Documents/surprise_project/surprise/stim/8_noeffect.mov 815 21-Mar-2018 14:03:11 4.987200e+02 3.935714e+02 0 0
61cm28_f21 162 46 20 -45 -45 left 1 5.000000e-01 /Users/lab/Documents/surprise_project/surprise/stim/3_effect.mov 477 21-Mar-2018 14:03:14 1.126524e+02 -5.225474e+01 1 0
61cm28_f21 162 47 11 -45 45 left 1 5.000000e-01 /Users/lab/Documents/surprise_project/surprise/stim/2_effect.mov 648 21-Mar-2018 14:03:17 4.876217e+02 -4.347397e+02 1 0
61cm28_f21 162 48 34 45 -45 right 1 5.000000e-01 /Users/lab/Documents/surprise_project/surprise/stim/5_effect.mov 880 21-Mar-2018 14:03:34 4.202216e+02 1.646775e+02 1 1
61cm28_f21 162 49 42 45 -45 right 1 5.000000e-01 /Users/lab/Documents/surprise_project/surprise/stim/6_effect.mov 632 21-Mar-2018 14:03:37 -1.075906e+02 -2.267387e+01 1 0
61cm28_f21 162 50 47 -45 45 left 1 5.000000e-01 /Users/lab/Documents/surprise_project/surprise/stim/6_noeffect.mov 614 21-Mar-2018 14:03:40 2.211275e+02 6.884154e+01 0 0
61cm28_f21 162 51 3 -45 45 left 1 5.000000e-01 /Users/lab/Documents/surprise_project/surprise/stim/1_effect.mov 550 21-Mar-2018 14:03:43 4.905404e+02 -3.689737e+02 1 0
61cm28_f21 162 52 46 45 -45 left 0 5.000000e-01 /Users/lab/Documents/surprise_project/surprise/stim/6_noeffect.mov 948 21-Mar-2018 14:03:58 -1.795230e+02 4.344562e+02 0 1
61cm28_f21 162 53 40 -45 -45 right 0 5.000000e-01 /Users/lab/Documents/surprise_project/surprise/stim/5_noeffect.mov 598 21-Mar-2018 14:04:01 2.461555e+02 4.526761e+02 0 0
61cm28_f21 162 54 59 -45 45 left 1 5.000000e-01 /Users/lab/Documents/surprise_project/surprise/stim/8_effect.mov 649 21-Mar-2018 14:04:04 4.405724e+02 4.181679e+02 1 0
61cm28_f21 162 55 6 45 -45 right 1 5.000000e-01 /Users/lab/Documents/surprise_project/surprise/stim/1_noeffect.mov 548 21-Mar-2018 14:04:07 4.306013e+02 -3.786248e+02 1 0
61cm28_f21 162 56 1 45 45 right 1 5.000000e-01 /Users/lab/Documents/surprise_project/surprise/stim/1_effect.mov 662 21-Mar-2018 14:04:32 2.675722e+02 2.734501e+01 1 1
61cm28_f21 162 57 31 -45 45 left 1 5.000000e-01 /Users/lab/Documents/surprise_project/surprise/stim/4_noeffect.mov 454 21-Mar-2018 14:04:35 2.262277e+02 1.679611e+02 0 0
61cm28_f21 162 58 17 45 45 right 1 5.000000e-01 /Users/lab/Documents/surprise_project/surprise/stim/3_effect.mov 491 21-Mar-2018 14:04:37 -2.096046e+02 1.467247e+02 1 0
61cm28_f21 162 59 24 -45 -45 left 1 5.000000e-01 /Users/lab/Documents/surprise_project/surprise/stim/3_noeffect.mov 368 21-Mar-2018 14:04:40 -4.860204e+02 2.094533e+01 0 0
61cm28_f21 162 60 10 45 -45 right 1 5.000000e-01 /Users/lab/Documents/surprise_project/surprise/stim/2_effect.mov 680 21-Mar-2018 14:05:06 -1.851393e+02 -2.517953e+02 1 1
61cm28_f21 162 61 28 -45 -45 left 1 5.000000e-01 /Users/lab/Documents/surprise_project/surprise/stim/4_effect.mov 436 21-Mar-2018 14:05:08 2.669612e+02 -3.156352e+02 1 0
61cm28_f21 162 62 36 -45 45 right 0 5.000000e-01 /Users/lab/Documents/surprise_project/surprise/stim/5_effect.mov 386 21-Mar-2018 14:05:11 3.547116e+02 -2.777284e+02 1 0
61cm28_f21 162 63 41 45 45 left 0 5.000000e-01 /Users/lab/Documents/surprise_project/surprise/stim/6_effect.mov 532 21-Mar-2018 14:05:14 -1.001300e+02 -5.785304e+00 1 0
61cm28_f21 162 64 21 45 45 right 1 5.000000e-01 /Users/lab/Documents/surprise_project/surprise/stim/3_noeffect.mov 1299 21-Mar-2018 14:05:33 -9.834311e+01 -2.747090e+02 0 1
61cm28_f21 162 65 53 45 45 right 1 5.000000e-01 /Users/lab/Documents/surprise_project/surprise/stim/7_noeffect.mov 832 21-Mar-2018 14:05:36 2.892485e+02 -2.397439e+02 0 0
61cm28_f21 162 66 5 45 45 right 1 5.000000e-01 /Users/lab/Documents/surprise_project/surprise/stim/1_noeffect.mov 486 21-Mar-2018 14:05:39 3.689251e+02 -3.484787e+01 1 0
61cm28_f21 162 67 18 45 -45 right 1 5.000000e-01 /Users/lab/Documents/surprise_project/surprise/stim/3_effect.mov 581 21-Mar-2018 14:05:42 -1.584859e+02 -1.343327e+02 1 0
61cm28_f21 162 68 8 -45 -45 left 1 5.000000e-01 /Users/lab/Documents/surprise_project/surprise/stim/1_noeffect.mov 1280 21-Mar-2018 14:06:07 6.181010e+01 -2.540951e+02 1 1
61cm28_f21 162 69 49 45 45 left 0 5.000000e-01 /Users/lab/Documents/surprise_project/surprise/stim/7_effect.mov 916 21-Mar-2018 14:06:11 -9.746836e+01 1.270494e+02 1 0
61cm28_f21 162 70 22 45 -45 left 0 5.000000e-01 /Users/lab/Documents/surprise_project/surprise/stim/3_noeffect.mov 732 21-Mar-2018 14:06:14 4.083928e+02 -4.692211e+01 0 0
61cm28_f21 162 71 25 45 45 left 0 5.000000e-01 /Users/lab/Documents/surprise_project/surprise/stim/4_effect.mov 565 21-Mar-2018 14:06:17 4.524273e+02 -4.377432e+02 1 0
61cm28_f21 162 72 58 45 -45 left 0 5.000000e-01 /Users/lab/Documents/surprise_project/surprise/stim/8_effect.mov 534 21-Mar-2018 14:06:20 1.675911e+02 -1.359170e+02 1 0
