subject_name subjectNumber iTrial unshuffled_trial targetOrientation flankersOrientation response correct onscreen_stim_duration magicShows rt date time_of_day deltaX deltaY surpriseClip isClipTrial
22et20_f20 372 1 3 -45 45 left 1 5.000000e-01 /Users/lab/Documents/surprise_project/surprise/stim/1_effect.mov 624 29-Mar-2018 16:30:30 -6.016786e+01 -1.765328e+02 1 1
22et20_f20 372 2 55 -45 45 left 1 5.000000e-01 /Users/lab/Documents/surprise_project/surprise/stim/7_noeffect.mov 630 29-Mar-2018 16:30:33 -3.295799e+02 2.529381e+02 0 0
22et20_f20 372 3 64 -45 -45 left 1 5.000000e-01 /Users/lab/Documents/surprise_project/surprise/stim/8_noeffect.mov 484 29-Mar-2018 16:30:36 1.673433e+02 2.286325e+02 0 0
22et20_f20 372 4 9 45 45 right 1 5.000000e-01 /Users/lab/Documents/surprise_project/surprise/stim/2_effect.mov 824 29-Mar-2018 16:31:01 2.710046e+02 -5.210901e+01 1 1
22et20_f20 372 5 34 45 -45 right 1 5.000000e-01 /Users/lab/Documents/surprise_project/surprise/stim/5_effect.mov 711 29-Mar-2018 16:31:04 3.994108e+02 3.967573e+02 1 0
22et20_f20 372 6 15 -45 45 left 1 5.000000e-01 /Users/lab/Documents/surprise_project/surprise/stim/2_noeffect.mov 712 29-Mar-2018 16:31:07 -8.714927e+01 -2.125833e+02 0 0
22et20_f20 372 7 53 45 45 right 1 5.000000e-01 /Users/lab/Documents/surprise_project/surprise/stim/7_noeffect.mov 579 29-Mar-2018 16:31:10 2.363132e+02 2.976268e+02 0 0
22et20_f20 372 8 45 45 45 right 1 5.000000e-01 /Users/lab/Documents/surprise_project/surprise/stim/6_noeffect.mov 678 29-Mar-2018 16:31:25 -1.235364e+02 4.994294e+01 0 1
22et20_f20 372 9 4 -45 -45 left 1 5.000000e-01 /Users/lab/Documents/surprise_project/surprise/stim/1_effect.mov 615 29-Mar-2018 16:31:28 -6.270176e+01 -4.071621e+02 1 0
22et20_f20 372 10 13 45 45 right 1 5.000000e-01 /Users/lab/Documents/surprise_project/surprise/stim/2_noeffect.mov 444 29-Mar-2018 16:31:31 1.787140e+02 2.961863e+02 0 0
22et20_f20 372 11 49 45 45 right 1 5.000000e-01 /Users/lab/Documents/surprise_project/surprise/stim/7_effect.mov 632 29-Mar-2018 16:31:34 -3.342533e+02 -1.365480e+02 1 0
22et20_f20 372 12 50 45 -45 right 1 5.000000e-01 /Users/lab/Documents/surprise_project/surprise/stim/7_effect.mov 592 29-Mar-2018 16:31:53 -3.909768e+02 2.695572e+02 1 1
22et20_f20 372 13 25 45 45 right 1 5.000000e-01 /Users/lab/Documents/surprise_project/surprise/stim/4_effect.mov 631 29-Mar-2018 16:31:56 1.800580e+02 4.963199e+02 1 0
22et20_f20 372 14 71 -45 45 left 1 5.000000e-01 /Users/lab/Documents/surprise_project/surprise/stim/9_noeffect.mov 661 29-Mar-2018 16:31:59 -2.103161e+02 2.825390e+02 0 0
22et20_f20 372 15 54 45 -45 right 1 5.000000e-01 /Users/lab/Documents/surprise_project/surprise/stim/7_noeffect.mov 498 29-Mar-2018 16:32:02 4.319784e+02 1.665915e+02 0 0
22et20_f20 372 16 61 45 45 right 1 5.000000e-01 /Users/lab/Documents/surprise_project/surprise/stim/8_noeffect.mov 1095 29-Mar-2018 16:32:23 3.510699e+02 -3.145308e+02 0 1
22et20_f20 372 17 32 -45 -45 left 1 5.000000e-01 /Users/lab/Documents/surprise_project/surprise/stim/4_noeffect.mov 475 29-Mar-2018 16:32:26 -1.160375e+02 3.680461e+02 0 0
22et20_f20 372 18 20 -45 -45 left 1 5.000000e-01 /Users/lab/Documents/surprise_project/surprise/stim/3_effect.mov 613 29-Mar-2018 16:32:29 4.284444e+02 2.708262e+02 1 0
22et20_f20 372 19 62 45 -45 right 1 5.000000e-01 /Users/lab/Documents/surprise_project/surprise/stim/8_noeffect.mov 666 29-Mar-2018 16:32:32 -3.124872e+01 -2.495551e+02 0 0
22et20_f20 372 20 67 -45 45 left 1 5.000000e-01 /Users/lab/Documents/surprise_project/surprise/stim/9_effect.mov 628 29-Mar-2018 16:32:54 -4.096228e+02 1.085597e+02 1 1
22et20_f20 372 21 26 45 -45 right 1 5.000000e-01 /Users/lab/Documents/surprise_project/surprise/stim/4_effect.mov 581 29-Mar-2018 16:32:57 7.047822e+01 9.388297e+01 1 0
22et20_f20 372 22 31 -45 45 left 1 5.000000e-01 /Users/lab/Documents/surprise_project/surprise/stim/4_noeffect.mov 549 29-Mar-2018 16:33:00 2.576563e+02 4.521877e+01 0 0
22et20_f20 372 23 5 45 45 right 1 5.000000e-01 /Users/lab/Documents/surprise_project/surprise/stim/1_noeffect.mov 680 29-Mar-2018 16:33:03 -3.127842e+01 -1.976263e+02 1 0
22et20_f20 372 24 57 45 45 right 1 5.000000e-01 /Users/lab/Documents/surprise_project/surprise/stim/8_effect.mov 610 29-Mar-2018 16:33:23 -3.944585e+02 8.588740e+00 1 1
22et20_f20 372 25 16 -45 -45 left 1 5.000000e-01 /Users/lab/Documents/surprise_project/surprise/stim/2_noeffect.mov 664 29-Mar-2018 16:33:26 2.404943e+02 -2.220990e+02 0 0
22et20_f20 372 26 27 -45 45 left 1 5.000000e-01 /Users/lab/Documents/surprise_project/surprise/stim/4_effect.mov 712 29-Mar-2018 16:33:29 -1.867461e+02 2.123564e+02 1 0
22et20_f20 372 27 41 45 45 right 1 5.000000e-01 /Users/lab/Documents/surprise_project/surprise/stim/6_effect.mov 712 29-Mar-2018 16:33:33 -4.195876e+02 -3.965217e+02 1 0
22et20_f20 372 28 68 -45 -45 left 1 5.000000e-01 /Users/lab/Documents/surprise_project/surprise/stim/9_effect.mov 996 29-Mar-2018 16:33:55 -1.653722e+02 4.260327e+02 1 1
22et20_f20 372 29 8 -45 -45 left 1 5.000000e-01 /Users/lab/Documents/surprise_project/surprise/stim/1_noeffect.mov 663 29-Mar-2018 16:33:58 -1.673528e+02 1.998271e+02 1 0
22et20_f20 372 30 19 -45 45 left 1 5.000000e-01 /Users/lab/Documents/surprise_project/surprise/stim/3_effect.mov 816 29-Mar-2018 16:34:01 4.422205e+02 -2.298028e+02 1 0
22et20_f20 372 31 23 -45 45 left 1 5.000000e-01 /Users/lab/Documents/surprise_project/surprise/stim/3_noeffect.mov 611 29-Mar-2018 16:34:04 5.754136e+01 2.735678e+02 0 0
22et20_f20 372 32 21 45 45 right 1 5.000000e-01 /Users/lab/Documents/surprise_project/surprise/stim/3_noeffect.mov 678 29-Mar-2018 16:34:22 2.929482e+02 3.415218e+02 0 1
22et20_f20 372 33 38 45 -45 right 1 5.000000e-01 /Users/lab/Documents/surprise_project/surprise/stim/5_noeffect.mov 746 29-Mar-2018 16:34:25 6.586426e+01 -4.570472e+02 0 0
22et20_f20 372 34 10 45 -45 right 1 5.000000e-01 /Users/lab/Documents/surprise_project/surprise/stim/2_effect.mov 613 29-Mar-2018 16:34:28 -5.471951e+01 7.089805e+01 1 0
22et20_f20 372 35 7 -45 45 left 1 5.000000e-01 /Users/lab/Documents/surprise_project/surprise/stim/1_noeffect.mov 766 29-Mar-2018 16:34:31 3.037177e+02 4.514933e+02 1 0
22et20_f20 372 36 66 45 -45 right 1 5.000000e-01 /Users/lab/Documents/surprise_project/surprise/stim/9_effect.mov 595 29-Mar-2018 16:34:53 -3.460758e+02 3.779985e+02 1 1
22et20_f20 372 37 69 45 45 right 1 5.000000e-01 /Users/lab/Documents/surprise_project/surprise/stim/9_noeffect.mov 499 29-Mar-2018 16:34:56 3.372472e+02 -2.164513e+02 0 0
22et20_f20 372 38 39 -45 45 left 1 5.000000e-01 /Users/lab/Documents/surprise_project/surprise/stim/5_noeffect.mov 565 29-Mar-2018 16:34:59 1.827829e+02 1.402003e+02 0 0
22et20_f20 372 39 63 -45 45 left 1 5.000000e-01 /Users/lab/Documents/surprise_project/surprise/stim/8_noeffect.mov 680 29-Mar-2018 16:35:02 -3.735778e+02 1.561980e+02 0 0
22et20_f20 372 40 59 -45 45 left 1 5.000000e-01 /Users/lab/Documents/surprise_project/surprise/stim/8_effect.mov 694 29-Mar-2018 16:35:23 2.274996e+01 2.629931e+02 1 1
22et20_f20 372 41 14 45 -45 right 1 5.000000e-01 /Users/lab/Documents/surprise_project/surprise/stim/2_noeffect.mov 532 29-Mar-2018 16:35:26 9.413595e-01 1.566807e+02 0 0
22et20_f20 372 42 70 45 -45 right 1 5.000000e-01 /Users/lab/Documents/surprise_project/surprise/stim/9_noeffect.mov 631 29-Mar-2018 16:35:29 -3.339820e+02 2.883465e+02 0 0
22et20_f20 372 43 1 45 45 right 1 5.000000e-01 /Users/lab/Documents/surprise_project/surprise/stim/1_effect.mov 799 29-Mar-2018 16:35:32 4.349886e+02 4.018884e+02 1 0
22et20_f20 372 44 6 45 -45 right 1 5.000000e-01 /Users/lab/Documents/surprise_project/surprise/stim/1_noeffect.mov 696 29-Mar-2018 16:35:57 7.996167e+01 4.107661e+02 1 1
22et20_f20 372 45 60 -45 -45 left 1 5.000000e-01 /Users/lab/Documents/surprise_project/surprise/stim/8_effect.mov 679 29-Mar-2018 16:36:00 1.664475e+02 1.063804e+02 1 0
22et20_f20 372 46 43 -45 45 left 1 5.000000e-01 /Users/lab/Documents/surprise_project/surprise/stim/6_effect.mov 599 29-Mar-2018 16:36:03 2.024636e+02 -7.303546e+01 1 0
22et20_f20 372 47 18 45 -45 right 1 5.000000e-01 /Users/lab/Documents/surprise_project/surprise/stim/3_effect.mov 578 29-Mar-2018 16:36:06 2.636706e+02 -2.991130e+02 1 0
22et20_f20 372 48 11 -45 45 left 1 5.000000e-01 /Users/lab/Documents/surprise_project/surprise/stim/2_effect.mov 612 29-Mar-2018 16:36:31 -2.970681e+02 2.860099e+02 1 1
22et20_f20 372 49 44 -45 -45 left 1 5.000000e-01 /Users/lab/Documents/surprise_project/surprise/stim/6_effect.mov 778 29-Mar-2018 16:36:34 -4.602257e+02 -5.654950e+01 1 0
22et20_f20 372 50 48 -45 -45 left 1 5.000000e-01 /Users/lab/Documents/surprise_project/surprise/stim/6_noeffect.mov 546 29-Mar-2018 16:36:37 1.244011e+02 -1.219093e+02 0 0
22et20_f20 372 51 47 -45 45 left 1 5.000000e-01 /Users/lab/Documents/surprise_project/surprise/stim/6_noeffect.mov 566 29-Mar-2018 16:36:40 -2.702126e+02 -4.714561e+02 0 0
22et20_f20 372 52 29 45 45 right 1 5.000000e-01 /Users/lab/Documents/surprise_project/surprise/stim/4_noeffect.mov 843 29-Mar-2018 16:36:57 -3.653930e+02 -4.663592e+02 0 1
22et20_f20 372 53 36 -45 45 left 1 5.000000e-01 /Users/lab/Documents/surprise_project/surprise/stim/5_effect.mov 696 29-Mar-2018 16:37:00 -4.358659e+02 1.012217e+02 1 0
22et20_f20 372 54 56 -45 -45 left 1 5.000000e-01 /Users/lab/Documents/surprise_project/surprise/stim/7_noeffect.mov 546 29-Mar-2018 16:37:03 -1.346455e+02 -2.614449e+02 0 0
22et20_f20 372 55 52 -45 -45 left 1 5.000000e-01 /Users/lab/Documents/surprise_project/surprise/stim/7_effect.mov 646 29-Mar-2018 16:37:06 -5.627608e+01 -2.812298e+02 1 0
22et20_f20 372 56 51 -45 45 left 1 5.000000e-01 /Users/lab/Documents/surprise_project/surprise/stim/7_effect.mov 697 29-Mar-2018 16:37:35 -3.768000e+02 -3.336461e+01 1 1
22et20_f20 372 57 12 -45 -45 left 1 5.000000e-01 /Users/lab/Documents/surprise_project/surprise/stim/2_effect.mov 630 29-Mar-2018 16:37:38 3.391370e+02 -9.050134e+01 1 0
22et20_f20 372 58 36 -45 -45 left 1 5.000000e-01 /Users/lab/Documents/surprise_project/surprise/stim/5_effect.mov 965 29-Mar-2018 16:37:42 -2.285725e+02 -6.610663e+01 1 0
22et20_f20 372 59 28 -45 -45 left 1 5.000000e-01 /Users/lab/Documents/surprise_project/surprise/stim/4_effect.mov 548 29-Mar-2018 16:37:45 -4.096588e+02 4.085285e+01 1 0
22et20_f20 372 60 58 45 -45 right 1 5.000000e-01 /Users/lab/Documents/surprise_project/surprise/stim/8_effect.mov 641 29-Mar-2018 16:38:06 -4.690780e+02 3.787024e+02 1 1
22et20_f20 372 61 37 45 45 right 1 5.000000e-01 /Users/lab/Documents/surprise_project/surprise/stim/5_noeffect.mov 780 29-Mar-2018 16:38:09 -2.373806e+02 2.395427e+02 0 0
22et20_f20 372 62 30 45 -45 right 1 5.000000e-01 /Users/lab/Documents/surprise_project/surprise/stim/4_noeffect.mov 681 29-Mar-2018 16:38:12 -3.327986e+00 -1.229250e+02 0 0
22et20_f20 372 63 42 45 -45 right 1 5.000000e-01 /Users/lab/Documents/surprise_project/surprise/stim/6_effect.mov 528 29-Mar-2018 16:38:15 -3.566022e+02 2.151445e+02 1 0
22et20_f20 372 64 17 45 45 right 1 5.000000e-01 /Users/lab/Documents/surprise_project/surprise/stim/3_effect.mov 594 29-Mar-2018 16:38:33 -4.712522e+02 -3.076856e+02 1 1
22et20_f20 372 65 2 45 -45 right 1 5.000000e-01 /Users/lab/Documents/surprise_project/surprise/stim/1_effect.mov 532 29-Mar-2018 16:38:36 -3.938894e+02 -1.243829e+02 1 0
22et20_f20 372 66 65 45 45 right 1 5.000000e-01 /Users/lab/Documents/surprise_project/surprise/stim/9_effect.mov 447 29-Mar-2018 16:38:39 3.457726e+02 -2.098528e+02 1 0
22et20_f20 372 67 72 -45 -45 left 1 5.000000e-01 /Users/lab/Documents/surprise_project/surprise/stim/9_noeffect.mov 783 29-Mar-2018 16:38:42 3.253008e+02 1.837909e+02 0 0
22et20_f20 372 68 46 45 -45 right 1 5.000000e-01 /Users/lab/Documents/surprise_project/surprise/stim/6_noeffect.mov 562 29-Mar-2018 16:38:57 -3.910600e+02 1.431798e+01 0 1
22et20_f20 372 69 24 -45 -45 right 0 5.000000e-01 /Users/lab/Documents/surprise_project/surprise/stim/3_noeffect.mov 629 29-Mar-2018 16:39:00 -4.403156e+02 2.163191e+02 0 0
22et20_f20 372 70 22 45 -45 right 1 5.000000e-01 /Users/lab/Documents/surprise_project/surprise/stim/3_noeffect.mov 582 29-Mar-2018 16:39:03 2.167806e+02 3.269619e+01 0 0
22et20_f20 372 71 40 -45 -45 left 1 5.000000e-01 /Users/lab/Documents/surprise_project/surprise/stim/5_noeffect.mov 475 29-Mar-2018 16:39:05 1.613383e+02 -4.892688e+02 0 0
22et20_f20 372 72 33 45 45 right 1 5.000000e-01 /Users/lab/Documents/surprise_project/surprise/stim/5_effect.mov 565 29-Mar-2018 16:39:08 2.535388e+02 -6.070076e+00 1 0
