subject_name subjectNumber iTrial unshuffled_trial targetOrientation flankersOrientation response correct onscreen_stim_duration magicShows rt date time_of_day deltaX deltaY surpriseClip isClipTrial
05vt24_f19 337 1 6 45 -45 right 1 5.000000e-01 /Users/lab/Documents/surprise_project/surprise/stim/1_noeffect.mov 659 28-Mar-2018 14:36:55 3.216332e+02 -2.691401e+02 1 1
05vt24_f19 337 2 30 45 -45 right 1 5.000000e-01 /Users/lab/Documents/surprise_project/surprise/stim/4_noeffect.mov 463 28-Mar-2018 14:36:58 -3.612469e+02 7.807514e+01 0 0
05vt24_f19 337 3 23 -45 45 left 1 5.000000e-01 /Users/lab/Documents/surprise_project/surprise/stim/3_noeffect.mov 428 28-Mar-2018 14:37:01 1.113645e+02 1.459934e+02 0 0
05vt24_f19 337 4 67 -45 45 left 1 5.000000e-01 /Users/lab/Documents/surprise_project/surprise/stim/9_effect.mov 927 28-Mar-2018 14:37:23 -2.863014e+02 -3.711886e+02 1 1
05vt24_f19 337 5 64 -45 -45 left 1 5.000000e-01 /Users/lab/Documents/surprise_project/surprise/stim/8_noeffect.mov 471 28-Mar-2018 14:37:26 4.832842e+01 -3.648444e+02 0 0
05vt24_f19 337 6 58 45 -45 left 0 5.000000e-01 /Users/lab/Documents/surprise_project/surprise/stim/8_effect.mov 416 28-Mar-2018 14:37:29 -1.856951e+02 3.863893e+02 1 0
05vt24_f19 337 7 72 -45 -45 left 1 5.000000e-01 /Users/lab/Documents/surprise_project/surprise/stim/9_noeffect.mov 383 28-Mar-2018 14:37:32 -9.552634e-01 -5.841671e+01 0 0
05vt24_f19 337 8 17 45 45 right 1 5.000000e-01 /Users/lab/Documents/surprise_project/surprise/stim/3_effect.mov 547 28-Mar-2018 14:37:50 2.424854e+02 -2.600374e+02 1 1
05vt24_f19 337 9 34 45 -45 right 1 5.000000e-01 /Users/lab/Documents/surprise_project/surprise/stim/5_effect.mov 599 28-Mar-2018 14:37:53 -3.743713e+02 -2.125044e+02 1 0
05vt24_f19 337 10 60 -45 -45 left 1 5.000000e-01 /Users/lab/Documents/surprise_project/surprise/stim/8_effect.mov 665 28-Mar-2018 14:37:56 -3.532660e+02 1.898292e+02 1 0
05vt24_f19 337 11 71 -45 45 left 1 5.000000e-01 /Users/lab/Documents/surprise_project/surprise/stim/9_noeffect.mov 696 28-Mar-2018 14:37:59 2.688695e+01 -3.870025e+02 0 0
05vt24_f19 337 12 57 45 45 right 1 5.000000e-01 /Users/lab/Documents/surprise_project/surprise/stim/8_effect.mov 645 28-Mar-2018 14:38:20 1.721893e+02 -2.125109e+02 1 1
05vt24_f19 337 13 45 45 45 right 1 5.000000e-01 /Users/lab/Documents/surprise_project/surprise/stim/6_noeffect.mov 483 28-Mar-2018 14:38:23 4.740038e+02 -1.936366e+02 0 0
05vt24_f19 337 14 41 45 45 right 1 5.000000e-01 /Users/lab/Documents/surprise_project/surprise/stim/6_effect.mov 470 28-Mar-2018 14:38:26 4.645034e+02 4.519700e+02 1 0
05vt24_f19 337 15 66 45 -45 right 1 5.000000e-01 /Users/lab/Documents/surprise_project/surprise/stim/9_effect.mov 514 28-Mar-2018 14:38:29 -4.003596e+02 -3.081326e+02 1 0
05vt24_f19 337 16 28 -45 -45 left 1 5.000000e-01 /Users/lab/Documents/surprise_project/surprise/stim/4_effect.mov 595 28-Mar-2018 14:38:46 4.874771e+02 2.674598e+02 1 1
05vt24_f19 337 17 22 45 -45 right 1 5.000000e-01 /Users/lab/Documents/surprise_project/surprise/stim/3_noeffect.mov 679 28-Mar-2018 14:38:49 1.279445e+02 2.219417e+02 0 0
05vt24_f19 337 18 63 -45 45 left 1 5.000000e-01 /Users/lab/Documents/surprise_project/surprise/stim/8_noeffect.mov 549 28-Mar-2018 14:38:52 4.795161e+02 3.624735e+02 0 0
05vt24_f19 337 19 9 45 45 right 1 5.000000e-01 /Users/lab/Documents/surprise_project/surprise/stim/2_effect.mov 599 28-Mar-2018 14:38:55 4.733112e+02 1.684914e+02 1 0
05vt24_f19 337 20 18 45 -45 right 1 5.000000e-01 /Users/lab/Documents/surprise_project/surprise/stim/3_effect.mov 659 28-Mar-2018 14:39:13 1.880670e+02 -2.578518e+02 1 1
05vt24_f19 337 21 55 -45 45 left 1 5.000000e-01 /Users/lab/Documents/surprise_project/surprise/stim/7_noeffect.mov 564 28-Mar-2018 14:39:16 3.940054e+02 -3.657501e+02 0 0
05vt24_f19 337 22 5 45 45 right 1 5.000000e-01 /Users/lab/Documents/surprise_project/surprise/stim/1_noeffect.mov 499 28-Mar-2018 14:39:19 -1.940683e+01 3.686384e+02 1 0
05vt24_f19 337 23 25 45 45 right 1 5.000000e-01 /Users/lab/Documents/surprise_project/surprise/stim/4_effect.mov 515 28-Mar-2018 14:39:22 4.279067e+02 2.041548e+00 1 0
05vt24_f19 337 24 40 -45 -45 left 1 5.000000e-01 /Users/lab/Documents/surprise_project/surprise/stim/5_noeffect.mov 794 28-Mar-2018 14:39:38 -3.946018e+02 -4.819151e+02 0 1
05vt24_f19 337 25 42 45 -45 right 1 5.000000e-01 /Users/lab/Documents/surprise_project/surprise/stim/6_effect.mov 614 28-Mar-2018 14:39:41 3.836098e+01 -3.187083e+02 1 0
05vt24_f19 337 26 47 -45 45 left 1 5.000000e-01 /Users/lab/Documents/surprise_project/surprise/stim/6_noeffect.mov 532 28-Mar-2018 14:39:44 3.544802e+02 -3.514138e+02 0 0
05vt24_f19 337 27 3 -45 45 left 1 5.000000e-01 /Users/lab/Documents/surprise_project/surprise/stim/1_effect.mov 430 28-Mar-2018 14:39:47 -6.832526e+01 -2.737638e+02 1 0
05vt24_f19 337 28 61 45 45 right 1 5.000000e-01 /Users/lab/Documents/surprise_project/surprise/stim/8_noeffect.mov 476 28-Mar-2018 14:40:08 2.051368e+02 -1.523960e+02 0 1
05vt24_f19 337 29 2 45 -45 left 0 5.000000e-01 /Users/lab/Documents/surprise_project/surprise/stim/1_effect.mov 353 28-Mar-2018 14:40:10 -9.457075e+01 -4.038521e+02 1 0
05vt24_f19 337 30 36 -45 45 left 1 5.000000e-01 /Users/lab/Documents/surprise_project/surprise/stim/5_effect.mov 582 28-Mar-2018 14:40:13 -2.004458e+02 -4.680511e+02 1 0
05vt24_f19 337 31 53 45 45 right 1 5.000000e-01 /Users/lab/Documents/surprise_project/surprise/stim/7_noeffect.mov 464 28-Mar-2018 14:40:16 2.360914e+02 3.788202e+02 0 0
05vt24_f19 337 32 70 45 -45 right 1 5.000000e-01 /Users/lab/Documents/surprise_project/surprise/stim/9_noeffect.mov 862 28-Mar-2018 14:40:38 -2.575044e+02 -6.752771e+00 0 1
05vt24_f19 337 33 19 -45 45 left 1 5.000000e-01 /Users/lab/Documents/surprise_project/surprise/stim/3_effect.mov 549 28-Mar-2018 14:40:41 -5.478735e+01 -1.903072e+02 1 0
05vt24_f19 337 34 49 45 45 right 1 5.000000e-01 /Users/lab/Documents/surprise_project/surprise/stim/7_effect.mov 546 28-Mar-2018 14:40:44 3.802178e+02 4.560364e+02 1 0
05vt24_f19 337 35 69 45 45 right 1 5.000000e-01 /Users/lab/Documents/surprise_project/surprise/stim/9_noeffect.mov 444 28-Mar-2018 14:40:47 -1.632203e+02 4.049912e+02 0 0
05vt24_f19 337 36 62 45 -45 right 1 5.000000e-01 /Users/lab/Documents/surprise_project/surprise/stim/8_noeffect.mov 646 28-Mar-2018 14:41:08 4.551497e+02 -1.763903e+02 0 1
05vt24_f19 337 37 50 45 -45 right 1 5.000000e-01 /Users/lab/Documents/surprise_project/surprise/stim/7_effect.mov 682 28-Mar-2018 14:41:11 -4.296343e+02 -2.435818e+02 1 0
05vt24_f19 337 38 20 -45 -45 left 1 5.000000e-01 /Users/lab/Documents/surprise_project/surprise/stim/3_effect.mov 762 28-Mar-2018 14:41:14 -3.439254e+02 3.964964e+02 1 0
05vt24_f19 337 39 8 -45 -45 left 1 5.000000e-01 /Users/lab/Documents/surprise_project/surprise/stim/1_noeffect.mov 401 28-Mar-2018 14:41:17 -2.950791e+02 4.697295e+02 1 0
05vt24_f19 337 40 48 -45 -45 left 1 5.000000e-01 /Users/lab/Documents/surprise_project/surprise/stim/6_noeffect.mov 560 28-Mar-2018 14:41:31 -1.632563e+01 -2.116441e+02 0 1
05vt24_f19 337 41 27 -45 45 left 1 5.000000e-01 /Users/lab/Documents/surprise_project/surprise/stim/4_effect.mov 616 28-Mar-2018 14:41:34 -4.456212e+02 1.461967e+02 1 0
05vt24_f19 337 42 33 45 45 right 1 5.000000e-01 /Users/lab/Documents/surprise_project/surprise/stim/5_effect.mov 698 28-Mar-2018 14:41:38 -9.160781e+01 6.572616e+01 1 0
05vt24_f19 337 43 65 45 45 right 1 5.000000e-01 /Users/lab/Documents/surprise_project/surprise/stim/9_effect.mov 394 28-Mar-2018 14:41:40 4.619262e+02 -3.000614e+02 1 0
05vt24_f19 337 44 68 -45 -45 left 1 5.000000e-01 /Users/lab/Documents/surprise_project/surprise/stim/9_effect.mov 711 28-Mar-2018 14:42:02 -4.045230e+02 2.115021e+02 1 1
05vt24_f19 337 45 31 -45 45 right 0 5.000000e-01 /Users/lab/Documents/surprise_project/surprise/stim/4_noeffect.mov 361 28-Mar-2018 14:42:05 3.892917e+02 -2.451054e+02 0 0
05vt24_f19 337 46 24 -45 -45 left 1 5.000000e-01 /Users/lab/Documents/surprise_project/surprise/stim/3_noeffect.mov 435 28-Mar-2018 14:42:08 -4.893815e+02 -4.792925e+02 0 0
05vt24_f19 337 47 16 -45 -45 left 1 5.000000e-01 /Users/lab/Documents/surprise_project/surprise/stim/2_noeffect.mov 480 28-Mar-2018 14:42:11 1.068453e+02 -1.102506e+02 0 0
05vt24_f19 337 48 36 -45 -45 left 1 5.000000e-01 /Users/lab/Documents/surprise_project/surprise/stim/5_effect.mov 611 28-Mar-2018 14:42:28 3.633465e+02 4.579945e+02 1 1
05vt24_f19 337 49 14 45 -45 right 1 5.000000e-01 /Users/lab/Documents/surprise_project/surprise/stim/2_noeffect.mov 512 28-Mar-2018 14:42:30 -2.168408e+02 -2.138719e+02 0 0
05vt24_f19 337 50 56 -45 -45 left 1 5.000000e-01 /Users/lab/Documents/surprise_project/surprise/stim/7_noeffect.mov 481 28-Mar-2018 14:42:33 3.192567e+01 2.810441e+02 0 0
05vt24_f19 337 51 37 45 45 right 1 5.000000e-01 /Users/lab/Documents/surprise_project/surprise/stim/5_noeffect.mov 421 28-Mar-2018 14:42:36 -3.107121e+02 -3.430729e+02 0 0
05vt24_f19 337 52 54 45 -45 right 1 5.000000e-01 /Users/lab/Documents/surprise_project/surprise/stim/7_noeffect.mov 595 28-Mar-2018 14:42:55 -1.197469e+02 4.943182e+02 0 1
05vt24_f19 337 53 15 -45 45 left 1 5.000000e-01 /Users/lab/Documents/surprise_project/surprise/stim/2_noeffect.mov 546 28-Mar-2018 14:42:58 -3.381971e+02 1.196290e+02 0 0
05vt24_f19 337 54 29 45 45 right 1 5.000000e-01 /Users/lab/Documents/surprise_project/surprise/stim/4_noeffect.mov 427 28-Mar-2018 14:43:01 -4.092614e+02 1.774294e+01 0 0
05vt24_f19 337 55 46 45 -45 right 1 5.000000e-01 /Users/lab/Documents/surprise_project/surprise/stim/6_noeffect.mov 531 28-Mar-2018 14:43:04 -1.394873e+01 -4.456385e+02 0 0
05vt24_f19 337 56 12 -45 -45 left 1 5.000000e-01 /Users/lab/Documents/surprise_project/surprise/stim/2_effect.mov 584 28-Mar-2018 14:43:29 3.671432e+02 3.276359e+02 1 1
05vt24_f19 337 57 11 -45 45 left 1 5.000000e-01 /Users/lab/Documents/surprise_project/surprise/stim/2_effect.mov 515 28-Mar-2018 14:43:32 -4.610217e+02 -3.955183e+02 1 0
05vt24_f19 337 58 52 -45 -45 left 1 5.000000e-01 /Users/lab/Documents/surprise_project/surprise/stim/7_effect.mov 409 28-Mar-2018 14:43:35 -2.226564e+02 -3.777134e+02 1 0
05vt24_f19 337 59 51 -45 45 left 1 5.000000e-01 /Users/lab/Documents/surprise_project/surprise/stim/7_effect.mov 529 28-Mar-2018 14:43:37 6.904598e+01 9.548421e+01 1 0
05vt24_f19 337 60 44 -45 -45 left 1 5.000000e-01 /Users/lab/Documents/surprise_project/surprise/stim/6_effect.mov 661 28-Mar-2018 14:43:53 -4.343632e+02 4.852075e+02 1 1
05vt24_f19 337 61 43 -45 45 left 1 5.000000e-01 /Users/lab/Documents/surprise_project/surprise/stim/6_effect.mov 512 28-Mar-2018 14:43:56 4.953388e+02 -2.948763e+01 1 0
05vt24_f19 337 62 7 -45 45 left 1 5.000000e-01 /Users/lab/Documents/surprise_project/surprise/stim/1_noeffect.mov 492 28-Mar-2018 14:43:59 6.641999e+01 4.402404e+02 1 0
05vt24_f19 337 63 39 -45 45 left 1 5.000000e-01 /Users/lab/Documents/surprise_project/surprise/stim/5_noeffect.mov 515 28-Mar-2018 14:44:01 8.417573e+00 -2.352264e+02 0 0
05vt24_f19 337 64 32 -45 -45 left 1 5.000000e-01 /Users/lab/Documents/surprise_project/surprise/stim/4_noeffect.mov 545 28-Mar-2018 14:44:18 1.938684e+02 7.723972e+01 0 1
05vt24_f19 337 65 1 45 45 right 1 5.000000e-01 /Users/lab/Documents/surprise_project/surprise/stim/1_effect.mov 582 28-Mar-2018 14:44:21 1.593154e+02 1.093114e+02 1 0
05vt24_f19 337 66 10 45 -45 right 1 5.000000e-01 /Users/lab/Documents/surprise_project/surprise/stim/2_effect.mov 882 28-Mar-2018 14:44:25 -1.274303e+02 3.279079e+02 1 0
05vt24_f19 337 67 38 45 -45 right 1 5.000000e-01 /Users/lab/Documents/surprise_project/surprise/stim/5_noeffect.mov 516 28-Mar-2018 14:44:28 5.683285e+01 -2.298187e+02 0 0
05vt24_f19 337 68 13 45 45 right 1 5.000000e-01 /Users/lab/Documents/surprise_project/surprise/stim/2_noeffect.mov 494 28-Mar-2018 14:44:52 -2.087970e+02 -1.776255e+02 0 1
05vt24_f19 337 69 21 45 45 right 1 5.000000e-01 /Users/lab/Documents/surprise_project/surprise/stim/3_noeffect.mov 373 28-Mar-2018 14:44:55 1.545279e+02 4.474245e-01 0 0
05vt24_f19 337 70 26 45 -45 right 1 5.000000e-01 /Users/lab/Documents/surprise_project/surprise/stim/4_effect.mov 598 28-Mar-2018 14:44:58 2.645461e+01 4.948244e+01 1 0
05vt24_f19 337 71 59 -45 45 left 1 5.000000e-01 /Users/lab/Documents/surprise_project/surprise/stim/8_effect.mov 417 28-Mar-2018 14:45:01 5.450664e+01 -7.148288e+01 1 0
05vt24_f19 337 72 4 -45 -45 left 1 5.000000e-01 /Users/lab/Documents/surprise_project/surprise/stim/1_effect.mov 486 28-Mar-2018 14:45:04 -3.004176e+02 2.594526e+02 1 0
