subject_name subjectNumber iTrial unshuffled_trial targetOrientation flankersOrientation response correct onscreen_stim_duration magicShows rt date time_of_day deltaX deltaY surpriseClip isClipTrial
88fs29_m20 297 1 40 -45 -45 right 0 5.000000e-01 /Users/lab/Documents/surprise_project/surprise/stim/5_noeffect.mov 490 27-Mar-2018 10:38:19 1.474224e+02 4.014720e+02 0 1
88fs29_m20 297 2 9 45 45 left 0 5.000000e-01 /Users/lab/Documents/surprise_project/surprise/stim/2_effect.mov 377 27-Mar-2018 10:38:21 -2.182859e+02 -4.039985e+02 1 0
88fs29_m20 297 3 57 45 45 right 1 5.000000e-01 /Users/lab/Documents/surprise_project/surprise/stim/8_effect.mov 332 27-Mar-2018 10:38:24 9.209822e+01 -4.536541e+02 1 0
88fs29_m20 297 4 53 45 45 left 0 5.000000e-01 /Users/lab/Documents/surprise_project/surprise/stim/7_noeffect.mov 415 27-Mar-2018 10:38:43 -1.861538e+02 4.952658e+01 0 1
88fs29_m20 297 5 58 45 -45 left 0 5.000000e-01 /Users/lab/Documents/surprise_project/surprise/stim/8_effect.mov 616 27-Mar-2018 10:38:46 -2.383129e+02 3.483667e+02 1 0
88fs29_m20 297 6 45 45 45 left 0 5.000000e-01 /Users/lab/Documents/surprise_project/surprise/stim/6_noeffect.mov 240 27-Mar-2018 10:38:49 2.256018e+02 3.837543e+02 0 0
88fs29_m20 297 7 30 45 -45 right 1 5.000000e-01 /Users/lab/Documents/surprise_project/surprise/stim/4_noeffect.mov 293 27-Mar-2018 10:38:51 2.913175e+02 -1.347340e+02 0 0
88fs29_m20 297 8 11 -45 45 left 1 5.000000e-01 /Users/lab/Documents/surprise_project/surprise/stim/2_effect.mov 1010 27-Mar-2018 10:39:17 -1.369002e+02 -2.281936e+02 1 1
88fs29_m20 297 9 71 -45 45 left 1 5.000000e-01 /Users/lab/Documents/surprise_project/surprise/stim/9_noeffect.mov 403 27-Mar-2018 10:39:20 -2.142695e+02 -3.942534e+02 0 0
88fs29_m20 297 10 37 45 45 right 1 5.000000e-01 /Users/lab/Documents/surprise_project/surprise/stim/5_noeffect.mov 282 27-Mar-2018 10:39:23 1.394618e+02 -5.516907e+01 0 0
88fs29_m20 297 11 42 45 -45 right 1 5.000000e-01 /Users/lab/Documents/surprise_project/surprise/stim/6_effect.mov 346 27-Mar-2018 10:39:25 3.383374e+02 -3.868680e+02 1 0
88fs29_m20 297 12 8 -45 -45 right 0 5.000000e-01 /Users/lab/Documents/surprise_project/surprise/stim/1_noeffect.mov 448 27-Mar-2018 10:39:50 2.713097e+02 2.695948e+02 1 1
88fs29_m20 297 13 20 -45 -45 left 1 5.000000e-01 /Users/lab/Documents/surprise_project/surprise/stim/3_effect.mov 377 27-Mar-2018 10:39:53 -4.297007e+02 -4.330697e+02 1 0
88fs29_m20 297 14 3 -45 45 right 0 5.000000e-01 /Users/lab/Documents/surprise_project/surprise/stim/1_effect.mov 292 27-Mar-2018 10:39:56 4.096462e+02 -1.814139e+02 1 0
88fs29_m20 297 15 5 45 45 left 0 5.000000e-01 /Users/lab/Documents/surprise_project/surprise/stim/1_noeffect.mov 276 27-Mar-2018 10:39:58 -1.739437e+02 1.131660e+02 1 0
88fs29_m20 297 16 17 45 45 right 1 5.000000e-01 /Users/lab/Documents/surprise_project/surprise/stim/3_effect.mov 561 27-Mar-2018 10:40:16 2.946312e+02 3.386025e+01 1 1
88fs29_m20 297 17 44 -45 -45 left 1 5.000000e-01 /Users/lab/Documents/surprise_project/surprise/stim/6_effect.mov 1597 27-Mar-2018 10:40:20 -1.407411e+02 2.317733e+02 1 0
88fs29_m20 297 18 34 45 -45 right 1 5.000000e-01 /Users/lab/Documents/surprise_project/surprise/stim/5_effect.mov 318 27-Mar-2018 10:40:23 4.217181e+02 -2.225493e+02 1 0
88fs29_m20 297 19 49 45 45 left 0 5.000000e-01 /Users/lab/Documents/surprise_project/surprise/stim/7_effect.mov 280 27-Mar-2018 10:40:26 -3.709075e+02 4.471927e+02 1 0
88fs29_m20 297 20 64 -45 -45 left 1 5.000000e-01 /Users/lab/Documents/surprise_project/surprise/stim/8_noeffect.mov 442 27-Mar-2018 10:40:47 1.236730e-01 1.255502e+01 0 1
88fs29_m20 297 21 19 -45 45 left 1 5.000000e-01 /Users/lab/Documents/surprise_project/surprise/stim/3_effect.mov 457 27-Mar-2018 10:40:49 -2.936059e+02 -3.032187e+02 1 0
88fs29_m20 297 22 16 -45 -45 right 0 5.000000e-01 /Users/lab/Documents/surprise_project/surprise/stim/2_noeffect.mov 469 27-Mar-2018 10:40:52 3.548858e+01 -6.503076e+01 0 0
88fs29_m20 297 23 21 45 45 left 0 5.000000e-01 /Users/lab/Documents/surprise_project/surprise/stim/3_noeffect.mov 404 27-Mar-2018 10:40:55 -5.290727e+01 4.978371e+02 0 0
88fs29_m20 297 24 65 45 45 left 0 5.000000e-01 /Users/lab/Documents/surprise_project/surprise/stim/9_effect.mov 527 27-Mar-2018 10:41:17 -1.591467e+01 3.741717e+02 1 1
88fs29_m20 297 25 62 45 -45 left 0 5.000000e-01 /Users/lab/Documents/surprise_project/surprise/stim/8_noeffect.mov 375 27-Mar-2018 10:41:20 -2.739872e+02 3.409174e+02 0 0
88fs29_m20 297 26 18 45 -45 left 0 5.000000e-01 /Users/lab/Documents/surprise_project/surprise/stim/3_effect.mov 565 27-Mar-2018 10:41:23 -4.581236e+02 2.777244e+02 1 0
88fs29_m20 297 27 47 -45 45 left 1 5.000000e-01 /Users/lab/Documents/surprise_project/surprise/stim/6_noeffect.mov 408 27-Mar-2018 10:41:26 -4.035668e+02 2.014215e+02 0 0
88fs29_m20 297 28 7 -45 45 left 1 5.000000e-01 /Users/lab/Documents/surprise_project/surprise/stim/1_noeffect.mov 439 27-Mar-2018 10:41:50 -4.444273e+02 2.431469e+02 1 1
88fs29_m20 297 29 43 -45 45 right 0 5.000000e-01 /Users/lab/Documents/surprise_project/surprise/stim/6_effect.mov 340 27-Mar-2018 10:41:53 3.980353e+02 -3.937461e+02 1 0
88fs29_m20 297 30 10 45 -45 right 1 5.000000e-01 /Users/lab/Documents/surprise_project/surprise/stim/2_effect.mov 581 27-Mar-2018 10:41:56 2.455725e+02 -4.966017e+01 1 0
88fs29_m20 297 31 67 -45 45 left 1 5.000000e-01 /Users/lab/Documents/surprise_project/surprise/stim/9_effect.mov 435 27-Mar-2018 10:41:59 -1.701831e+02 -3.523405e+02 1 0
88fs29_m20 297 32 59 -45 45 right 0 5.000000e-01 /Users/lab/Documents/surprise_project/surprise/stim/8_effect.mov 611 27-Mar-2018 10:42:20 1.325208e+02 -5.125529e+01 1 1
88fs29_m20 297 33 66 45 -45 right 1 5.000000e-01 /Users/lab/Documents/surprise_project/surprise/stim/9_effect.mov 546 27-Mar-2018 10:42:23 3.699641e+02 3.674241e+02 1 0
88fs29_m20 297 34 70 45 -45 left 0 5.000000e-01 /Users/lab/Documents/surprise_project/surprise/stim/9_noeffect.mov 345 27-Mar-2018 10:42:26 -1.465653e+02 8.344071e+01 0 0
88fs29_m20 297 35 27 -45 45 right 0 5.000000e-01 /Users/lab/Documents/surprise_project/surprise/stim/4_effect.mov 314 27-Mar-2018 10:42:28 1.693130e+02 2.835476e+01 1 0
88fs29_m20 297 36 13 45 45 left 0 5.000000e-01 /Users/lab/Documents/surprise_project/surprise/stim/2_noeffect.mov 494 27-Mar-2018 10:42:53 -2.649288e+02 -4.537608e+02 0 1
88fs29_m20 297 37 39 -45 45 right 0 5.000000e-01 /Users/lab/Documents/surprise_project/surprise/stim/5_noeffect.mov 516 27-Mar-2018 10:42:56 -1.285352e+02 1.786352e+02 0 0
88fs29_m20 297 38 12 -45 -45 right 0 5.000000e-01 /Users/lab/Documents/surprise_project/surprise/stim/2_effect.mov 663 27-Mar-2018 10:42:59 3.004470e+02 -6.618786e+00 1 0
88fs29_m20 297 39 72 -45 -45 right 0 5.000000e-01 /Users/lab/Documents/surprise_project/surprise/stim/9_noeffect.mov 348 27-Mar-2018 10:43:01 3.830058e+02 8.002474e+01 0 0
88fs29_m20 297 40 36 -45 45 right 0 5.000000e-01 /Users/lab/Documents/surprise_project/surprise/stim/5_effect.mov 485 27-Mar-2018 10:43:18 3.394605e+02 3.172693e+02 1 1
88fs29_m20 297 41 48 -45 -45 left 1 5.000000e-01 /Users/lab/Documents/surprise_project/surprise/stim/6_noeffect.mov 499 27-Mar-2018 10:43:21 -4.079648e+02 4.631264e+01 0 0
88fs29_m20 297 42 55 -45 45 left 1 5.000000e-01 /Users/lab/Documents/surprise_project/surprise/stim/7_noeffect.mov 613 27-Mar-2018 10:43:24 -9.657265e+01 -1.241884e+02 0 0
88fs29_m20 297 43 61 45 45 left 0 5.000000e-01 /Users/lab/Documents/surprise_project/surprise/stim/8_noeffect.mov 296 27-Mar-2018 10:43:27 -3.154533e+02 -5.152686e+01 0 0
88fs29_m20 297 44 33 45 45 left 0 5.000000e-01 /Users/lab/Documents/surprise_project/surprise/stim/5_effect.mov 533 27-Mar-2018 10:43:44 -4.190562e+02 1.051956e+02 1 1
88fs29_m20 297 45 36 -45 -45 right 0 5.000000e-01 /Users/lab/Documents/surprise_project/surprise/stim/5_effect.mov 497 27-Mar-2018 10:43:47 -4.172899e+00 -4.510986e+02 1 0
88fs29_m20 297 46 22 45 -45 left 0 5.000000e-01 /Users/lab/Documents/surprise_project/surprise/stim/3_noeffect.mov 455 27-Mar-2018 10:43:49 -3.038670e+02 -4.854086e+02 0 0
88fs29_m20 297 47 6 45 -45 left 0 5.000000e-01 /Users/lab/Documents/surprise_project/surprise/stim/1_noeffect.mov 461 27-Mar-2018 10:43:52 -2.344986e+02 -2.479313e+01 1 0
88fs29_m20 297 48 41 45 45 right 1 5.000000e-01 /Users/lab/Documents/surprise_project/surprise/stim/6_effect.mov 578 27-Mar-2018 10:44:07 1.233139e+02 4.263973e+02 1 1
88fs29_m20 297 49 25 45 45 right 1 5.000000e-01 /Users/lab/Documents/surprise_project/surprise/stim/4_effect.mov 613 27-Mar-2018 10:44:10 2.362125e+02 -4.753092e+02 1 0
88fs29_m20 297 50 23 -45 45 left 1 5.000000e-01 /Users/lab/Documents/surprise_project/surprise/stim/3_noeffect.mov 745 27-Mar-2018 10:44:14 -4.585363e+02 3.011400e+02 0 0
88fs29_m20 297 51 69 45 45 right 1 5.000000e-01 /Users/lab/Documents/surprise_project/surprise/stim/9_noeffect.mov 371 27-Mar-2018 10:44:16 4.656136e+02 -2.011615e+02 0 0
88fs29_m20 297 52 46 45 -45 right 1 5.000000e-01 /Users/lab/Documents/surprise_project/surprise/stim/6_noeffect.mov 543 27-Mar-2018 10:44:31 2.282019e+02 -1.890858e+02 0 1
88fs29_m20 297 53 38 45 -45 right 1 5.000000e-01 /Users/lab/Documents/surprise_project/surprise/stim/5_noeffect.mov 445 27-Mar-2018 10:44:34 1.593845e+01 4.770340e+02 0 0
88fs29_m20 297 54 56 -45 -45 left 1 5.000000e-01 /Users/lab/Documents/surprise_project/surprise/stim/7_noeffect.mov 313 27-Mar-2018 10:44:37 -3.982221e+02 1.137688e+02 0 0
88fs29_m20 297 55 60 -45 -45 left 1 5.000000e-01 /Users/lab/Documents/surprise_project/surprise/stim/8_effect.mov 314 27-Mar-2018 10:44:39 -4.239352e+02 6.343232e+01 1 0
88fs29_m20 297 56 32 -45 -45 right 0 5.000000e-01 /Users/lab/Documents/surprise_project/surprise/stim/4_noeffect.mov 445 27-Mar-2018 10:44:56 3.675548e+02 -1.247511e+02 0 1
88fs29_m20 297 57 15 -45 45 left 1 5.000000e-01 /Users/lab/Documents/surprise_project/surprise/stim/2_noeffect.mov 318 27-Mar-2018 10:44:59 -2.550710e+02 -8.699717e+01 0 0
88fs29_m20 297 58 54 45 -45 left 0 5.000000e-01 /Users/lab/Documents/surprise_project/surprise/stim/7_noeffect.mov 479 27-Mar-2018 10:45:02 6.364746e+01 -4.848878e+02 0 0
88fs29_m20 297 59 29 45 45 right 1 5.000000e-01 /Users/lab/Documents/surprise_project/surprise/stim/4_noeffect.mov 383 27-Mar-2018 10:45:05 9.699334e+01 -3.300044e+00 0 0
88fs29_m20 297 60 68 -45 -45 right 0 5.000000e-01 /Users/lab/Documents/surprise_project/surprise/stim/9_effect.mov 510 27-Mar-2018 10:45:26 -4.131881e+02 -4.580427e+02 1 1
88fs29_m20 297 61 51 -45 45 right 0 5.000000e-01 /Users/lab/Documents/surprise_project/surprise/stim/7_effect.mov 386 27-Mar-2018 10:45:29 9.624112e+01 1.876050e+02 1 0
88fs29_m20 297 62 24 -45 -45 left 1 5.000000e-01 /Users/lab/Documents/surprise_project/surprise/stim/3_noeffect.mov 370 27-Mar-2018 10:45:32 -2.948001e+02 1.698199e+02 0 0
88fs29_m20 297 63 28 -45 -45 left 1 5.000000e-01 /Users/lab/Documents/surprise_project/surprise/stim/4_effect.mov 293 27-Mar-2018 10:45:35 -2.891702e+02 -3.234460e+01 1 0
88fs29_m20 297 64 31 -45 45 left 1 5.000000e-01 /Users/lab/Documents/surprise_project/surprise/stim/4_noeffect.mov 660 27-Mar-2018 10:45:52 -9.971986e+01 3.830959e+02 0 1
88fs29_m20 297 65 1 45 45 left 0 5.000000e-01 /Users/lab/Documents/surprise_project/surprise/stim/1_effect.mov 346 27-Mar-2018 10:45:55 -6.406020e+01 3.649507e+01 1 0
88fs29_m20 297 66 2 45 -45 right 1 5.000000e-01 /Users/lab/Documents/surprise_project/surprise/stim/1_effect.mov 374 27-Mar-2018 10:45:57 4.051079e+02 -3.171868e+02 1 0
88fs29_m20 297 67 14 45 -45 left 0 5.000000e-01 /Users/lab/Documents/surprise_project/surprise/stim/2_noeffect.mov 283 27-Mar-2018 10:46:00 -4.367575e+02 3.140957e+02 0 0
88fs29_m20 297 68 50 45 -45 right 1 5.000000e-01 /Users/lab/Documents/surprise_project/surprise/stim/7_effect.mov 579 27-Mar-2018 10:46:29 9.310849e+01 3.803546e+02 1 1
88fs29_m20 297 69 4 -45 -45 right 0 5.000000e-01 /Users/lab/Documents/surprise_project/surprise/stim/1_effect.mov 439 27-Mar-2018 10:46:32 5.850726e+01 -2.354821e+02 1 0
88fs29_m20 297 70 52 -45 -45 right 0 5.000000e-01 /Users/lab/Documents/surprise_project/surprise/stim/7_effect.mov 362 27-Mar-2018 10:46:35 1.269159e+02 -9.577106e+01 1 0
88fs29_m20 297 71 63 -45 45 left 1 5.000000e-01 /Users/lab/Documents/surprise_project/surprise/stim/8_noeffect.mov 407 27-Mar-2018 10:46:38 -3.977739e+02 4.320163e+02 0 0
88fs29_m20 297 72 26 45 -45 right 1 5.000000e-01 /Users/lab/Documents/surprise_project/surprise/stim/4_effect.mov 358 27-Mar-2018 10:46:41 1.716345e+02 -1.157302e+02 1 0
