subject_name subjectNumber iTrial unshuffled_trial targetOrientation flankersOrientation response correct onscreen_stim_duration magicShows rt date time_of_day deltaX deltaY surpriseClip isClipTrial
77AT30_F22 2 1 12 -45 -45 left 1 5.000000e-01 /Users/lab/Documents/magic3Definitivo/stim/2_effect.mov 613 04-May-2017 15:26:25 -1.041262e+02 -1.571609e+02 1 1
77AT30_F22 2 2 8 -45 -45 left 1 5.000000e-01 /Users/lab/Documents/magic3Definitivo/stim/1_noeffect.mov 456 04-May-2017 15:26:28 -1.685922e+02 4.686635e+02 1 0
77AT30_F22 2 3 56 -45 -45 left 1 5.000000e-01 /Users/lab/Documents/magic3Definitivo/stim/7_noeffect.mov 530 04-May-2017 15:26:31 2.410801e+02 -9.446547e+01 0 0
77AT30_F22 2 4 26 45 -45 right 1 5.000000e-01 /Users/lab/Documents/magic3Definitivo/stim/4_effect.mov 726 04-May-2017 15:26:48 4.107131e+02 5.942205e+01 1 1
77AT30_F22 2 5 9 45 45 right 1 5.000000e-01 /Users/lab/Documents/magic3Definitivo/stim/2_effect.mov 508 04-May-2017 15:26:51 2.716420e+02 -3.363845e+02 1 0
77AT30_F22 2 6 78 45 -45 right 1 5.000000e-01 /Users/lab/Documents/magic3Definitivo/stim/10_noeffect.mov 544 04-May-2017 15:26:53 -9.510428e+01 2.810617e+02 0 0
77AT30_F22 2 7 47 -45 45 right 0 5.000000e-01 /Users/lab/Documents/magic3Definitivo/stim/6_noeffect.mov 409 04-May-2017 15:26:56 1.525677e+02 -1.993071e+02 0 0
77AT30_F22 2 8 22 45 -45 NORESP 0 5.000000e-01 /Users/lab/Documents/magic3Definitivo/stim/3_noeffect.mov 3011 04-May-2017 15:27:17 -2.941190e+02 -9.504323e+01 0 1
77AT30_F22 2 9 48 -45 -45 left 1 5.000000e-01 /Users/lab/Documents/magic3Definitivo/stim/6_noeffect.mov 554 04-May-2017 15:27:19 2.987275e+02 2.311234e+02 0 0
77AT30_F22 2 10 13 45 45 right 1 5.000000e-01 /Users/lab/Documents/magic3Definitivo/stim/2_noeffect.mov 645 04-May-2017 15:27:22 4.946684e+02 -4.388160e+02 0 0
77AT30_F22 2 11 30 45 -45 right 1 5.000000e-01 /Users/lab/Documents/magic3Definitivo/stim/4_noeffect.mov 521 04-May-2017 15:27:25 1.846386e+00 -2.161462e+02 0 0
77AT30_F22 2 12 14 45 -45 right 1 5.000000e-01 /Users/lab/Documents/magic3Definitivo/stim/2_noeffect.mov 595 04-May-2017 15:27:50 1.977618e+02 -1.761723e+02 0 1
77AT30_F22 2 13 1 45 45 left 0 5.000000e-01 /Users/lab/Documents/magic3Definitivo/stim/1_effect.mov 578 04-May-2017 15:27:52 3.539818e+02 1.120294e+02 1 0
77AT30_F22 2 14 72 -45 -45 left 1 5.000000e-01 /Users/lab/Documents/magic3Definitivo/stim/9_noeffect.mov 877 04-May-2017 15:27:56 -3.255771e+01 3.053457e+02 0 0
77AT30_F22 2 15 25 45 45 right 1 5.000000e-01 /Users/lab/Documents/magic3Definitivo/stim/4_effect.mov 679 04-May-2017 15:27:58 -3.518378e+02 4.416105e+02 1 0
77AT30_F22 2 16 31 -45 45 left 1 5.000000e-01 /Users/lab/Documents/magic3Definitivo/stim/4_noeffect.mov 643 04-May-2017 15:28:15 3.101506e+02 2.788023e+02 0 1
77AT30_F22 2 17 15 -45 45 left 1 5.000000e-01 /Users/lab/Documents/magic3Definitivo/stim/2_noeffect.mov 628 04-May-2017 15:28:18 -3.581772e+02 -6.960541e+01 0 0
77AT30_F22 2 18 3 -45 45 left 1 5.000000e-01 /Users/lab/Documents/magic3Definitivo/stim/1_effect.mov 492 04-May-2017 15:28:21 -4.184370e+02 1.084947e+02 1 0
77AT30_F22 2 19 43 -45 45 left 1 5.000000e-01 /Users/lab/Documents/magic3Definitivo/stim/6_effect.mov 461 04-May-2017 15:28:24 -1.370471e+02 -3.014197e+01 1 0
77AT30_F22 2 20 57 45 45 left 0 5.000000e-01 /Users/lab/Documents/magic3Definitivo/stim/8_effect.mov 661 04-May-2017 15:28:45 2.602736e+02 -5.660637e+01 1 1
77AT30_F22 2 21 64 -45 -45 left 1 5.000000e-01 /Users/lab/Documents/magic3Definitivo/stim/8_noeffect.mov 629 04-May-2017 15:28:47 3.172204e+02 -5.169152e+01 0 0
77AT30_F22 2 22 52 -45 -45 left 1 5.000000e-01 /Users/lab/Documents/magic3Definitivo/stim/7_effect.mov 511 04-May-2017 15:28:50 7.347365e+01 3.809803e+02 1 0
77AT30_F22 2 23 71 -45 45 left 1 5.000000e-01 /Users/lab/Documents/magic3Definitivo/stim/9_noeffect.mov 677 04-May-2017 15:28:53 -2.580458e+02 6.873303e+01 0 0
77AT30_F22 2 24 20 -45 -45 right 0 5.000000e-01 /Users/lab/Documents/magic3Definitivo/stim/3_effect.mov 710 04-May-2017 15:29:11 -4.874174e+02 1.401437e+02 1 1
77AT30_F22 2 25 76 -45 -45 left 1 5.000000e-01 /Users/lab/Documents/magic3Definitivo/stim/10_effect.mov 645 04-May-2017 15:29:14 3.520966e+02 -9.479960e+01 1 0
77AT30_F22 2 26 23 -45 45 left 1 5.000000e-01 /Users/lab/Documents/magic3Definitivo/stim/3_noeffect.mov 487 04-May-2017 15:29:17 -1.605402e+02 8.400755e+01 0 0
77AT30_F22 2 27 54 45 -45 right 1 5.000000e-01 /Users/lab/Documents/magic3Definitivo/stim/7_noeffect.mov 561 04-May-2017 15:29:20 7.941631e+01 4.432136e+02 0 0
77AT30_F22 2 28 59 -45 45 left 1 5.000000e-01 /Users/lab/Documents/magic3Definitivo/stim/8_effect.mov 794 04-May-2017 15:29:41 2.782661e+02 3.974131e+02 1 1
77AT30_F22 2 29 36 -45 45 left 1 5.000000e-01 /Users/lab/Documents/magic3Definitivo/stim/5_effect.mov 530 04-May-2017 15:29:43 2.903926e+02 4.433546e+02 1 0
77AT30_F22 2 30 4 -45 -45 left 1 5.000000e-01 /Users/lab/Documents/magic3Definitivo/stim/1_effect.mov 379 04-May-2017 15:29:46 5.875613e+00 2.893232e+02 1 0
77AT30_F22 2 31 6 45 -45 right 1 5.000000e-01 /Users/lab/Documents/magic3Definitivo/stim/1_noeffect.mov 530 04-May-2017 15:29:49 3.067101e+02 -1.548627e+02 1 0
77AT30_F22 2 32 33 45 45 right 1 5.000000e-01 /Users/lab/Documents/magic3Definitivo/stim/5_effect.mov 694 04-May-2017 15:30:06 3.347566e+02 -4.019844e+01 1 1
77AT30_F22 2 33 11 -45 45 left 1 5.000000e-01 /Users/lab/Documents/magic3Definitivo/stim/2_effect.mov 596 04-May-2017 15:30:08 4.297517e+02 -2.181234e+02 1 0
77AT30_F22 2 34 34 45 -45 right 1 5.000000e-01 /Users/lab/Documents/magic3Definitivo/stim/5_effect.mov 612 04-May-2017 15:30:11 -1.103409e+02 -3.076565e+02 1 0
77AT30_F22 2 35 10 45 -45 right 1 5.000000e-01 /Users/lab/Documents/magic3Definitivo/stim/2_effect.mov 545 04-May-2017 15:30:14 -2.453892e+02 -4.236380e+02 1 0
77AT30_F22 2 36 50 45 -45 right 1 5.000000e-01 /Users/lab/Documents/magic3Definitivo/stim/7_effect.mov 929 04-May-2017 15:30:33 1.500760e+01 3.549419e+02 1 1
77AT30_F22 2 37 61 45 45 right 1 5.000000e-01 /Users/lab/Documents/magic3Definitivo/stim/8_noeffect.mov 662 04-May-2017 15:30:36 4.527263e+02 -9.362308e+01 0 0
77AT30_F22 2 38 58 45 -45 right 1 5.000000e-01 /Users/lab/Documents/magic3Definitivo/stim/8_effect.mov 611 04-May-2017 15:30:39 1.601136e+02 4.615546e+02 1 0
77AT30_F22 2 39 68 -45 -45 left 1 5.000000e-01 /Users/lab/Documents/magic3Definitivo/stim/9_effect.mov 528 04-May-2017 15:30:42 -2.386046e+02 4.808257e+02 1 0
77AT30_F22 2 40 7 -45 45 left 1 5.000000e-01 /Users/lab/Documents/magic3Definitivo/stim/1_noeffect.mov 559 04-May-2017 15:31:06 -1.969174e+02 -2.661622e+02 1 1
77AT30_F22 2 41 77 45 45 left 0 5.000000e-01 /Users/lab/Documents/magic3Definitivo/stim/10_noeffect.mov 578 04-May-2017 15:31:09 -1.038019e+02 -3.533696e+01 0 0
77AT30_F22 2 42 60 -45 -45 left 1 5.000000e-01 /Users/lab/Documents/magic3Definitivo/stim/8_effect.mov 678 04-May-2017 15:31:12 7.378181e+00 3.966067e+02 1 0
77AT30_F22 2 43 44 -45 -45 left 1 5.000000e-01 /Users/lab/Documents/magic3Definitivo/stim/6_effect.mov 529 04-May-2017 15:31:15 -4.247664e+02 4.888962e+02 1 0
77AT30_F22 2 44 41 45 45 right 1 5.000000e-01 /Users/lab/Documents/magic3Definitivo/stim/6_effect.mov 711 04-May-2017 15:31:30 1.225291e+02 -4.812315e+02 1 1
77AT30_F22 2 45 63 -45 45 left 1 5.000000e-01 /Users/lab/Documents/magic3Definitivo/stim/8_noeffect.mov 662 04-May-2017 15:31:33 -4.378865e+02 -1.449392e+02 0 0
77AT30_F22 2 46 38 45 -45 right 1 5.000000e-01 /Users/lab/Documents/magic3Definitivo/stim/5_noeffect.mov 545 04-May-2017 15:31:36 2.661506e+02 2.382385e+01 0 0
77AT30_F22 2 47 28 -45 -45 left 1 5.000000e-01 /Users/lab/Documents/magic3Definitivo/stim/4_effect.mov 512 04-May-2017 15:31:38 -3.430988e+02 -4.077466e+02 1 0
77AT30_F22 2 48 70 45 -45 right 1 5.000000e-01 /Users/lab/Documents/magic3Definitivo/stim/9_noeffect.mov 561 04-May-2017 15:32:00 1.638044e+02 -1.067854e+02 0 1
77AT30_F22 2 49 46 45 -45 right 1 5.000000e-01 /Users/lab/Documents/magic3Definitivo/stim/6_noeffect.mov 496 04-May-2017 15:32:03 1.349008e+02 -2.930914e+02 0 0
77AT30_F22 2 50 75 -45 45 left 1 5.000000e-01 /Users/lab/Documents/magic3Definitivo/stim/10_effect.mov 383 04-May-2017 15:32:05 -1.295283e+01 -2.544608e+02 1 0
77AT30_F22 2 51 80 -45 -45 right 0 5.000000e-01 /Users/lab/Documents/magic3Definitivo/stim/10_noeffect.mov 372 04-May-2017 15:32:08 4.682046e+02 4.427681e+02 0 0
77AT30_F22 2 52 16 -45 -45 left 1 5.000000e-01 /Users/lab/Documents/magic3Definitivo/stim/2_noeffect.mov 576 04-May-2017 15:32:32 -2.124918e+02 -2.273177e+02 0 1
77AT30_F22 2 53 49 45 45 right 1 5.000000e-01 /Users/lab/Documents/magic3Definitivo/stim/7_effect.mov 561 04-May-2017 15:32:35 -2.609892e+02 4.010620e+02 1 0
77AT30_F22 2 54 17 45 45 right 1 5.000000e-01 /Users/lab/Documents/magic3Definitivo/stim/3_effect.mov 381 04-May-2017 15:32:38 -2.441657e+02 4.324561e+02 1 0
77AT30_F22 2 55 67 -45 45 left 1 5.000000e-01 /Users/lab/Documents/magic3Definitivo/stim/9_effect.mov 412 04-May-2017 15:32:41 1.311815e+02 -1.029927e+02 1 0
77AT30_F22 2 56 73 45 45 right 1 5.000000e-01 /Users/lab/Documents/magic3Definitivo/stim/10_effect.mov 778 04-May-2017 15:32:55 2.652621e+02 -4.181628e+02 1 1
77AT30_F22 2 57 37 45 45 right 1 5.000000e-01 /Users/lab/Documents/magic3Definitivo/stim/5_noeffect.mov 595 04-May-2017 15:32:58 -4.512317e+02 1.417068e+02 0 0
77AT30_F22 2 58 29 45 45 right 1 5.000000e-01 /Users/lab/Documents/magic3Definitivo/stim/4_noeffect.mov 612 04-May-2017 15:33:01 -1.677925e+02 -3.110413e+02 0 0
77AT30_F22 2 59 74 45 -45 left 0 5.000000e-01 /Users/lab/Documents/magic3Definitivo/stim/10_effect.mov 437 04-May-2017 15:33:03 4.991533e+02 3.554477e+02 1 0
77AT30_F22 2 60 42 45 -45 right 1 5.000000e-01 /Users/lab/Documents/magic3Definitivo/stim/6_effect.mov 644 04-May-2017 15:33:18 2.595518e+02 2.180293e+02 1 1
77AT30_F22 2 61 21 45 45 left 0 5.000000e-01 /Users/lab/Documents/magic3Definitivo/stim/3_noeffect.mov 712 04-May-2017 15:33:21 -5.430681e+01 4.170622e+02 0 0
77AT30_F22 2 62 62 45 -45 right 1 5.000000e-01 /Users/lab/Documents/magic3Definitivo/stim/8_noeffect.mov 492 04-May-2017 15:33:24 -1.002744e+02 -2.634977e+02 0 0
77AT30_F22 2 63 39 -45 45 left 1 5.000000e-01 /Users/lab/Documents/magic3Definitivo/stim/5_noeffect.mov 661 04-May-2017 15:33:27 9.421733e+01 -1.368227e+02 0 0
77AT30_F22 2 64 66 45 -45 right 1 5.000000e-01 /Users/lab/Documents/magic3Definitivo/stim/9_effect.mov 646 04-May-2017 15:33:49 -3.332485e+02 -9.338310e+01 1 1
77AT30_F22 2 65 65 45 45 right 1 5.000000e-01 /Users/lab/Documents/magic3Definitivo/stim/9_effect.mov 561 04-May-2017 15:33:51 -5.353011e+01 -3.203667e+02 1 0
77AT30_F22 2 66 79 -45 45 left 1 5.000000e-01 /Users/lab/Documents/magic3Definitivo/stim/10_noeffect.mov 763 04-May-2017 15:33:54 4.291488e+02 4.839953e+02 0 0
77AT30_F22 2 67 36 -45 -45 left 1 5.000000e-01 /Users/lab/Documents/magic3Definitivo/stim/5_effect.mov 594 04-May-2017 15:33:57 4.504273e+02 1.958936e+02 1 0
77AT30_F22 2 68 69 45 45 right 1 5.000000e-01 /Users/lab/Documents/magic3Definitivo/stim/9_noeffect.mov 594 04-May-2017 15:34:19 -1.411837e+02 4.168755e+02 0 1
77AT30_F22 2 69 55 -45 45 left 1 5.000000e-01 /Users/lab/Documents/magic3Definitivo/stim/7_noeffect.mov 385 04-May-2017 15:34:21 -5.088985e+01 2.353364e+02 0 0
77AT30_F22 2 70 18 45 -45 right 1 5.000000e-01 /Users/lab/Documents/magic3Definitivo/stim/3_effect.mov 561 04-May-2017 15:34:24 -4.106064e+02 -1.094648e+02 1 0
77AT30_F22 2 71 32 -45 -45 left 1 5.000000e-01 /Users/lab/Documents/magic3Definitivo/stim/4_noeffect.mov 406 04-May-2017 15:34:27 3.576508e+02 2.556978e+02 0 0
77AT30_F22 2 72 40 -45 -45 left 1 5.000000e-01 /Users/lab/Documents/magic3Definitivo/stim/5_noeffect.mov 677 04-May-2017 15:34:43 -1.169035e+02 3.298434e+02 0 1
77AT30_F22 2 73 45 45 45 right 1 5.000000e-01 /Users/lab/Documents/magic3Definitivo/stim/6_noeffect.mov 594 04-May-2017 15:34:46 -3.696918e+02 4.123670e+02 0 0
77AT30_F22 2 74 5 45 45 right 1 5.000000e-01 /Users/lab/Documents/magic3Definitivo/stim/1_noeffect.mov 612 04-May-2017 15:34:49 1.399956e+02 -2.626162e+02 1 0
77AT30_F22 2 75 53 45 45 right 1 5.000000e-01 /Users/lab/Documents/magic3Definitivo/stim/7_noeffect.mov 644 04-May-2017 15:34:52 -2.109868e+02 -1.971114e+02 0 0
77AT30_F22 2 76 24 -45 -45 left 1 5.000000e-01 /Users/lab/Documents/magic3Definitivo/stim/3_noeffect.mov 927 04-May-2017 15:35:10 3.120784e+02 3.047941e+02 0 1
77AT30_F22 2 77 19 -45 45 left 1 5.000000e-01 /Users/lab/Documents/magic3Definitivo/stim/3_effect.mov 441 04-May-2017 15:35:13 -8.030296e+01 1.756330e+02 1 0
77AT30_F22 2 78 27 -45 45 left 1 5.000000e-01 /Users/lab/Documents/magic3Definitivo/stim/4_effect.mov 511 04-May-2017 15:35:16 1.649975e+02 -2.475781e+02 1 0
77AT30_F22 2 79 2 45 -45 right 1 5.000000e-01 /Users/lab/Documents/magic3Definitivo/stim/1_effect.mov 746 04-May-2017 15:35:19 -4.876263e+02 -4.368716e+02 1 0
77AT30_F22 2 80 51 -45 45 left 1 5.000000e-01 /Users/lab/Documents/magic3Definitivo/stim/7_effect.mov 578 04-May-2017 15:35:22 6.108458e+01 -1.727105e+02 1 0
