subject_name subjectNumber iTrial unshuffled_trial targetOrientation flankersOrientation response correct onscreen_stim_duration magicShows rt date time_of_day deltaX deltaY surpriseClip isClipTrial
42ES12_F19 3 1 24 -45 -45 left 1 5.000000e-01 /Users/lab/Documents/magic3Definitivo/stim/3_noeffect.mov 1226 04-May-2017 16:56:20 3.640841e+02 2.762190e+02 0 1
42ES12_F19 3 2 15 -45 45 left 1 5.000000e-01 /Users/lab/Documents/magic3Definitivo/stim/2_noeffect.mov 609 04-May-2017 16:56:22 -3.771349e+02 -1.204357e+02 0 0
42ES12_F19 3 3 60 -45 -45 left 1 5.000000e-01 /Users/lab/Documents/magic3Definitivo/stim/8_effect.mov 1009 04-May-2017 16:56:26 -2.666746e+02 -1.363639e+02 1 0
42ES12_F19 3 4 65 45 45 right 1 5.000000e-01 /Users/lab/Documents/magic3Definitivo/stim/9_effect.mov 809 04-May-2017 16:56:48 -2.308077e+02 -3.728733e+02 1 1
42ES12_F19 3 5 71 -45 45 left 1 5.000000e-01 /Users/lab/Documents/magic3Definitivo/stim/9_noeffect.mov 912 04-May-2017 16:56:51 1.727033e+02 6.003739e+01 0 0
42ES12_F19 3 6 51 -45 45 left 1 5.000000e-01 /Users/lab/Documents/magic3Definitivo/stim/7_effect.mov 728 04-May-2017 16:56:54 -3.551484e+02 -8.563499e+01 1 0
42ES12_F19 3 7 19 -45 45 left 1 5.000000e-01 /Users/lab/Documents/magic3Definitivo/stim/3_effect.mov 578 04-May-2017 16:56:57 -6.653812e+01 1.272141e+02 1 0
42ES12_F19 3 8 5 45 45 right 1 5.000000e-01 /Users/lab/Documents/magic3Definitivo/stim/1_noeffect.mov 761 04-May-2017 16:57:22 -9.273330e+01 4.934576e+02 1 1
42ES12_F19 3 9 57 45 45 right 1 5.000000e-01 /Users/lab/Documents/magic3Definitivo/stim/8_effect.mov 561 04-May-2017 16:57:24 8.219805e+01 -6.641624e+01 1 0
42ES12_F19 3 10 39 -45 45 left 1 5.000000e-01 /Users/lab/Documents/magic3Definitivo/stim/5_noeffect.mov 711 04-May-2017 16:57:27 3.982993e+02 -1.080196e+01 0 0
42ES12_F19 3 11 29 45 45 right 1 5.000000e-01 /Users/lab/Documents/magic3Definitivo/stim/4_noeffect.mov 545 04-May-2017 16:57:30 1.175573e+02 -3.740700e+02 0 0
42ES12_F19 3 12 46 45 -45 right 1 5.000000e-01 /Users/lab/Documents/magic3Definitivo/stim/6_noeffect.mov 776 04-May-2017 16:57:45 3.026073e+02 1.591930e+02 0 1
42ES12_F19 3 13 44 -45 -45 left 1 5.000000e-01 /Users/lab/Documents/magic3Definitivo/stim/6_effect.mov 1294 04-May-2017 16:57:49 2.726679e+02 -1.671136e+02 1 0
42ES12_F19 3 14 37 45 45 right 1 5.000000e-01 /Users/lab/Documents/magic3Definitivo/stim/5_noeffect.mov 645 04-May-2017 16:57:51 1.563058e+02 1.214791e+01 0 0
42ES12_F19 3 15 16 -45 -45 left 1 5.000000e-01 /Users/lab/Documents/magic3Definitivo/stim/2_noeffect.mov 910 04-May-2017 16:57:55 -3.305795e+02 -8.348079e+01 0 0
42ES12_F19 3 16 41 45 45 right 1 5.000000e-01 /Users/lab/Documents/magic3Definitivo/stim/6_effect.mov 759 04-May-2017 16:58:10 -1.930518e+02 -2.754413e+02 1 1
42ES12_F19 3 17 49 45 45 right 1 5.000000e-01 /Users/lab/Documents/magic3Definitivo/stim/7_effect.mov 927 04-May-2017 16:58:13 -2.458072e+02 1.238388e+02 1 0
42ES12_F19 3 18 34 45 -45 right 1 5.000000e-01 /Users/lab/Documents/magic3Definitivo/stim/5_effect.mov 645 04-May-2017 16:58:16 8.006070e+01 -3.230532e+02 1 0
42ES12_F19 3 19 38 45 -45 right 1 5.000000e-01 /Users/lab/Documents/magic3Definitivo/stim/5_noeffect.mov 678 04-May-2017 16:58:19 -2.350325e+02 -3.554735e+02 0 0
42ES12_F19 3 20 59 -45 45 left 1 5.000000e-01 /Users/lab/Documents/magic3Definitivo/stim/8_effect.mov 1143 04-May-2017 16:58:40 -2.171409e+01 -8.639382e+01 1 1
42ES12_F19 3 21 62 45 -45 right 1 5.000000e-01 /Users/lab/Documents/magic3Definitivo/stim/8_noeffect.mov 662 04-May-2017 16:58:43 -9.916770e+01 -4.426306e+02 0 0
42ES12_F19 3 22 36 -45 45 left 1 5.000000e-01 /Users/lab/Documents/magic3Definitivo/stim/5_effect.mov 795 04-May-2017 16:58:46 3.571839e+02 -1.256885e+02 1 0
42ES12_F19 3 23 53 45 45 right 1 5.000000e-01 /Users/lab/Documents/magic3Definitivo/stim/7_noeffect.mov 560 04-May-2017 16:58:49 -3.944103e+02 4.295386e+02 0 0
42ES12_F19 3 24 76 -45 -45 left 1 5.000000e-01 /Users/lab/Documents/magic3Definitivo/stim/10_effect.mov 1026 04-May-2017 16:59:04 -2.608673e+00 -2.033246e+01 1 1
42ES12_F19 3 25 36 -45 -45 left 1 5.000000e-01 /Users/lab/Documents/magic3Definitivo/stim/5_effect.mov 1043 04-May-2017 16:59:07 -3.974864e+02 -3.343861e+02 1 0
42ES12_F19 3 26 6 45 -45 right 1 5.000000e-01 /Users/lab/Documents/magic3Definitivo/stim/1_noeffect.mov 762 04-May-2017 16:59:10 3.365920e+02 -1.821444e+02 1 0
42ES12_F19 3 27 3 -45 45 left 1 5.000000e-01 /Users/lab/Documents/magic3Definitivo/stim/1_effect.mov 878 04-May-2017 16:59:13 -3.986915e+02 -1.131459e+02 1 0
42ES12_F19 3 28 50 45 -45 right 1 5.000000e-01 /Users/lab/Documents/magic3Definitivo/stim/7_effect.mov 1507 04-May-2017 16:59:43 2.720048e+02 -3.016913e+02 1 1
42ES12_F19 3 29 48 -45 -45 left 1 5.000000e-01 /Users/lab/Documents/magic3Definitivo/stim/6_noeffect.mov 795 04-May-2017 16:59:46 4.411205e+02 1.413252e+01 0 0
42ES12_F19 3 30 2 45 -45 right 1 5.000000e-01 /Users/lab/Documents/magic3Definitivo/stim/1_effect.mov 727 04-May-2017 16:59:49 -2.594878e+02 3.699238e+02 1 0
42ES12_F19 3 31 33 45 45 right 1 5.000000e-01 /Users/lab/Documents/magic3Definitivo/stim/5_effect.mov 729 04-May-2017 16:59:52 -3.730490e+02 -2.222712e+02 1 0
42ES12_F19 3 32 17 45 45 right 1 5.000000e-01 /Users/lab/Documents/magic3Definitivo/stim/3_effect.mov 693 04-May-2017 17:00:10 -2.323507e+02 -4.618692e+02 1 1
42ES12_F19 3 33 64 -45 -45 left 1 5.000000e-01 /Users/lab/Documents/magic3Definitivo/stim/8_noeffect.mov 1011 04-May-2017 17:00:14 1.414009e+02 3.670835e+02 0 0
42ES12_F19 3 34 75 -45 45 left 1 5.000000e-01 /Users/lab/Documents/magic3Definitivo/stim/10_effect.mov 761 04-May-2017 17:00:17 1.026370e+02 1.952571e+01 1 0
42ES12_F19 3 35 25 45 45 right 1 5.000000e-01 /Users/lab/Documents/magic3Definitivo/stim/4_effect.mov 594 04-May-2017 17:00:20 2.655321e+02 2.570843e+01 1 0
42ES12_F19 3 36 70 45 -45 right 1 5.000000e-01 /Users/lab/Documents/magic3Definitivo/stim/9_noeffect.mov 626 04-May-2017 17:00:41 1.148233e+02 2.009624e+02 0 1
42ES12_F19 3 37 30 45 -45 right 1 5.000000e-01 /Users/lab/Documents/magic3Definitivo/stim/4_noeffect.mov 677 04-May-2017 17:00:44 -3.281510e+02 -4.543008e+02 0 0
42ES12_F19 3 38 43 -45 45 left 1 5.000000e-01 /Users/lab/Documents/magic3Definitivo/stim/6_effect.mov 878 04-May-2017 17:00:47 7.825759e+00 3.795673e+02 1 0
42ES12_F19 3 39 78 45 -45 right 1 5.000000e-01 /Users/lab/Documents/magic3Definitivo/stim/10_noeffect.mov 594 04-May-2017 17:00:50 5.716020e+00 -1.022341e+02 0 0
42ES12_F19 3 40 10 45 -45 right 1 5.000000e-01 /Users/lab/Documents/magic3Definitivo/stim/2_effect.mov 677 04-May-2017 17:01:16 -1.167242e+02 4.911228e+01 1 1
42ES12_F19 3 41 52 -45 -45 left 1 5.000000e-01 /Users/lab/Documents/magic3Definitivo/stim/7_effect.mov 1178 04-May-2017 17:01:19 -1.479132e+02 4.880565e+01 1 0
42ES12_F19 3 42 32 -45 -45 left 1 5.000000e-01 /Users/lab/Documents/magic3Definitivo/stim/4_noeffect.mov 1112 04-May-2017 17:01:22 4.694161e+02 -4.428001e+02 0 0
42ES12_F19 3 43 72 -45 -45 left 1 5.000000e-01 /Users/lab/Documents/magic3Definitivo/stim/9_noeffect.mov 861 04-May-2017 17:01:26 2.661683e+02 1.100644e+02 0 0
42ES12_F19 3 44 31 -45 45 left 1 5.000000e-01 /Users/lab/Documents/magic3Definitivo/stim/4_noeffect.mov 1126 04-May-2017 17:01:43 -4.176630e+02 1.429346e+02 0 1
42ES12_F19 3 45 79 -45 45 left 1 5.000000e-01 /Users/lab/Documents/magic3Definitivo/stim/10_noeffect.mov 712 04-May-2017 17:01:46 -1.955986e+02 -3.260804e+02 0 0
42ES12_F19 3 46 42 45 -45 right 1 5.000000e-01 /Users/lab/Documents/magic3Definitivo/stim/6_effect.mov 577 04-May-2017 17:01:49 -9.696600e+00 2.060438e+02 1 0
42ES12_F19 3 47 58 45 -45 right 1 5.000000e-01 /Users/lab/Documents/magic3Definitivo/stim/8_effect.mov 511 04-May-2017 17:01:52 -9.428251e+01 -3.756230e+02 1 0
42ES12_F19 3 48 12 -45 -45 right 0 5.000000e-01 /Users/lab/Documents/magic3Definitivo/stim/2_effect.mov 759 04-May-2017 17:02:17 4.362658e+02 -5.323678e+01 1 1
42ES12_F19 3 49 73 45 45 right 1 5.000000e-01 /Users/lab/Documents/magic3Definitivo/stim/10_effect.mov 811 04-May-2017 17:02:20 3.116833e+02 2.075964e+00 1 0
42ES12_F19 3 50 69 45 45 right 1 5.000000e-01 /Users/lab/Documents/magic3Definitivo/stim/9_noeffect.mov 777 04-May-2017 17:02:23 -3.147039e+01 1.500850e+02 0 0
42ES12_F19 3 51 20 -45 -45 left 1 5.000000e-01 /Users/lab/Documents/magic3Definitivo/stim/3_effect.mov 1194 04-May-2017 17:02:27 -1.224766e+02 -1.141225e+02 1 0
42ES12_F19 3 52 18 45 -45 right 1 5.000000e-01 /Users/lab/Documents/magic3Definitivo/stim/3_effect.mov 843 04-May-2017 17:02:45 -1.178294e+02 3.661603e+02 1 1
42ES12_F19 3 53 45 45 45 right 1 5.000000e-01 /Users/lab/Documents/magic3Definitivo/stim/6_noeffect.mov 661 04-May-2017 17:02:48 4.608429e+02 2.408633e+02 0 0
42ES12_F19 3 54 28 -45 -45 left 1 5.000000e-01 /Users/lab/Documents/magic3Definitivo/stim/4_effect.mov 1060 04-May-2017 17:02:51 -5.225129e+01 3.254172e+02 1 0
42ES12_F19 3 55 8 -45 -45 left 1 5.000000e-01 /Users/lab/Documents/magic3Definitivo/stim/1_noeffect.mov 994 04-May-2017 17:02:55 -2.995918e+02 -2.746046e+02 1 0
42ES12_F19 3 56 9 45 45 right 1 5.000000e-01 /Users/lab/Documents/magic3Definitivo/stim/2_effect.mov 810 04-May-2017 17:03:20 -1.110588e+02 2.382483e+02 1 1
42ES12_F19 3 57 11 -45 45 left 1 5.000000e-01 /Users/lab/Documents/magic3Definitivo/stim/2_effect.mov 594 04-May-2017 17:03:23 -2.349053e+01 -3.567902e+02 1 0
42ES12_F19 3 58 56 -45 -45 left 1 5.000000e-01 /Users/lab/Documents/magic3Definitivo/stim/7_noeffect.mov 1027 04-May-2017 17:03:26 2.668547e+02 1.271283e+02 0 0
42ES12_F19 3 59 67 -45 45 left 1 5.000000e-01 /Users/lab/Documents/magic3Definitivo/stim/9_effect.mov 927 04-May-2017 17:03:30 4.872328e+02 -1.843596e+02 1 0
42ES12_F19 3 60 55 -45 45 left 1 5.000000e-01 /Users/lab/Documents/magic3Definitivo/stim/7_noeffect.mov 843 04-May-2017 17:03:49 1.488223e+02 2.900582e+02 0 1
42ES12_F19 3 61 61 45 45 right 1 5.000000e-01 /Users/lab/Documents/magic3Definitivo/stim/8_noeffect.mov 711 04-May-2017 17:03:52 -4.025642e+02 -1.779459e+02 0 0
42ES12_F19 3 62 23 -45 45 left 1 5.000000e-01 /Users/lab/Documents/magic3Definitivo/stim/3_noeffect.mov 643 04-May-2017 17:03:55 4.909511e+01 6.082642e+00 0 0
42ES12_F19 3 63 77 45 45 right 1 5.000000e-01 /Users/lab/Documents/magic3Definitivo/stim/10_noeffect.mov 1044 04-May-2017 17:03:58 -1.607776e+02 4.209749e+02 0 0
42ES12_F19 3 64 7 -45 45 left 1 5.000000e-01 /Users/lab/Documents/magic3Definitivo/stim/1_noeffect.mov 893 04-May-2017 17:04:23 -4.725064e+02 -4.441512e+01 1 1
42ES12_F19 3 65 21 45 45 right 1 5.000000e-01 /Users/lab/Documents/magic3Definitivo/stim/3_noeffect.mov 761 04-May-2017 17:04:26 -1.541965e+02 -3.293786e+02 0 0
42ES12_F19 3 66 47 -45 45 left 1 5.000000e-01 /Users/lab/Documents/magic3Definitivo/stim/6_noeffect.mov 727 04-May-2017 17:04:29 1.602992e+02 3.155960e+02 0 0
42ES12_F19 3 67 1 45 45 right 1 5.000000e-01 /Users/lab/Documents/magic3Definitivo/stim/1_effect.mov 878 04-May-2017 17:04:32 -2.180701e+02 3.548950e+02 1 0
42ES12_F19 3 68 63 -45 45 left 1 5.000000e-01 /Users/lab/Documents/magic3Definitivo/stim/8_noeffect.mov 1077 04-May-2017 17:04:54 5.765044e+01 3.164268e+02 0 1
42ES12_F19 3 69 27 -45 45 left 1 5.000000e-01 /Users/lab/Documents/magic3Definitivo/stim/4_effect.mov 661 04-May-2017 17:04:57 -3.441364e+02 1.506373e+02 1 0
42ES12_F19 3 70 26 45 -45 right 1 5.000000e-01 /Users/lab/Documents/magic3Definitivo/stim/4_effect.mov 728 04-May-2017 17:05:00 -3.728555e+02 1.144080e+02 1 0
42ES12_F19 3 71 4 -45 -45 left 1 5.000000e-01 /Users/lab/Documents/magic3Definitivo/stim/1_effect.mov 993 04-May-2017 17:05:03 -3.297135e+02 2.382648e+02 1 0
42ES12_F19 3 72 68 -45 -45 left 1 5.000000e-01 /Users/lab/Documents/magic3Definitivo/stim/9_effect.mov 959 04-May-2017 17:05:25 9.703830e+01 8.705830e+01 1 1
42ES12_F19 3 73 13 45 45 right 1 5.000000e-01 /Users/lab/Documents/magic3Definitivo/stim/2_noeffect.mov 778 04-May-2017 17:05:28 4.867262e+02 -1.255560e+02 0 0
42ES12_F19 3 74 74 45 -45 right 1 5.000000e-01 /Users/lab/Documents/magic3Definitivo/stim/10_effect.mov 644 04-May-2017 17:05:31 -1.408616e+02 1.388732e+02 1 0
42ES12_F19 3 75 54 45 -45 right 1 5.000000e-01 /Users/lab/Documents/magic3Definitivo/stim/7_noeffect.mov 644 04-May-2017 17:05:34 4.109605e+02 4.434851e+02 0 0
42ES12_F19 3 76 40 -45 -45 left 1 5.000000e-01 /Users/lab/Documents/magic3Definitivo/stim/5_noeffect.mov 928 04-May-2017 17:05:51 -2.095715e+02 -1.970509e+02 0 1
42ES12_F19 3 77 22 45 -45 right 1 5.000000e-01 /Users/lab/Documents/magic3Definitivo/stim/3_noeffect.mov 627 04-May-2017 17:05:54 -2.214322e+02 3.445863e+02 0 0
42ES12_F19 3 78 14 45 -45 right 1 5.000000e-01 /Users/lab/Documents/magic3Definitivo/stim/2_noeffect.mov 661 04-May-2017 17:05:57 2.090307e+02 4.609440e+02 0 0
42ES12_F19 3 79 80 -45 -45 left 1 5.000000e-01 /Users/lab/Documents/magic3Definitivo/stim/10_noeffect.mov 960 04-May-2017 17:06:00 4.647359e+02 2.695286e+02 0 0
42ES12_F19 3 80 66 45 -45 right 1 5.000000e-01 /Users/lab/Documents/magic3Definitivo/stim/9_effect.mov 627 04-May-2017 17:06:03 4.658108e+02 -1.276205e+02 1 0
