subject_name subjectNumber iTrial unshuffled_trial targetOrientation flankersOrientation response correct onscreen_stim_duration magicShows rt date time_of_day deltaX deltaY surpriseClip isClipTrial
60am28_f19 379 1 56 -45 -45 left 1 5.000000e-01 /Users/lab/Documents/surprise_project/surprise/stim/7_noeffect.mov 1190 03-Apr-2018 10:16:08 -3.835939e+02 4.064309e+02 0 1
60am28_f19 379 2 37 45 45 right 1 5.000000e-01 /Users/lab/Documents/surprise_project/surprise/stim/5_noeffect.mov 929 03-Apr-2018 10:16:11 -3.700916e+02 -1.561705e+02 0 0
60am28_f19 379 3 42 45 -45 right 1 5.000000e-01 /Users/lab/Documents/surprise_project/surprise/stim/6_effect.mov 831 03-Apr-2018 10:16:14 4.678755e+02 4.882729e+02 1 0
60am28_f19 379 4 63 -45 45 left 1 5.000000e-01 /Users/lab/Documents/surprise_project/surprise/stim/8_noeffect.mov 763 03-Apr-2018 10:16:35 -4.866768e+02 1.354861e+02 0 1
60am28_f19 379 5 55 -45 45 left 1 5.000000e-01 /Users/lab/Documents/surprise_project/surprise/stim/7_noeffect.mov 663 03-Apr-2018 10:16:38 -2.562280e+02 4.444782e+02 0 0
60am28_f19 379 6 13 45 45 right 1 5.000000e-01 /Users/lab/Documents/surprise_project/surprise/stim/2_noeffect.mov 765 03-Apr-2018 10:16:42 1.458029e+01 -3.714789e+02 0 0
60am28_f19 379 7 9 45 45 right 1 5.000000e-01 /Users/lab/Documents/surprise_project/surprise/stim/2_effect.mov 761 03-Apr-2018 10:16:45 4.008968e+02 2.906876e+02 1 0
60am28_f19 379 8 34 45 -45 right 1 5.000000e-01 /Users/lab/Documents/surprise_project/surprise/stim/5_effect.mov 795 03-Apr-2018 10:17:02 5.798515e+01 -2.292907e+02 1 1
60am28_f19 379 9 39 -45 45 left 1 5.000000e-01 /Users/lab/Documents/surprise_project/surprise/stim/5_noeffect.mov 728 03-Apr-2018 10:17:05 1.983339e+02 4.252697e+02 0 0
60am28_f19 379 10 59 -45 45 left 1 5.000000e-01 /Users/lab/Documents/surprise_project/surprise/stim/8_effect.mov 713 03-Apr-2018 10:17:08 -6.773386e+00 -2.848235e+02 1 0
60am28_f19 379 11 32 -45 -45 left 1 5.000000e-01 /Users/lab/Documents/surprise_project/surprise/stim/4_noeffect.mov 1011 03-Apr-2018 10:17:11 1.616192e+02 -4.184296e+02 0 0
60am28_f19 379 12 20 -45 -45 left 1 5.000000e-01 /Users/lab/Documents/surprise_project/surprise/stim/3_effect.mov 1162 03-Apr-2018 10:17:30 6.237894e+01 -2.359173e+02 1 1
60am28_f19 379 13 60 -45 -45 left 1 5.000000e-01 /Users/lab/Documents/surprise_project/surprise/stim/8_effect.mov 983 03-Apr-2018 10:17:33 3.932294e+02 4.787565e+02 1 0
60am28_f19 379 14 49 45 45 right 1 5.000000e-01 /Users/lab/Documents/surprise_project/surprise/stim/7_effect.mov 1027 03-Apr-2018 10:17:36 -4.499070e+02 -1.987581e+02 1 0
60am28_f19 379 15 62 45 -45 right 1 5.000000e-01 /Users/lab/Documents/surprise_project/surprise/stim/8_noeffect.mov 681 03-Apr-2018 10:17:40 4.610186e+02 2.821126e+02 0 0
60am28_f19 379 16 66 45 -45 right 1 5.000000e-01 /Users/lab/Documents/surprise_project/surprise/stim/9_effect.mov 828 03-Apr-2018 10:18:01 5.767815e+01 3.446621e+02 1 1
60am28_f19 379 17 12 -45 -45 left 1 5.000000e-01 /Users/lab/Documents/surprise_project/surprise/stim/2_effect.mov 965 03-Apr-2018 10:18:05 3.911893e+02 -3.846045e+02 1 0
60am28_f19 379 18 31 -45 45 left 1 5.000000e-01 /Users/lab/Documents/surprise_project/surprise/stim/4_noeffect.mov 730 03-Apr-2018 10:18:08 -4.688698e+02 -3.831525e+01 0 0
60am28_f19 379 19 58 45 -45 right 1 5.000000e-01 /Users/lab/Documents/surprise_project/surprise/stim/8_effect.mov 899 03-Apr-2018 10:18:11 -4.709360e+02 -1.739545e+02 1 0
60am28_f19 379 20 36 -45 -45 left 1 5.000000e-01 /Users/lab/Documents/surprise_project/surprise/stim/5_effect.mov 1078 03-Apr-2018 10:18:28 4.857557e+02 4.355762e+02 1 1
60am28_f19 379 21 1 45 45 right 1 5.000000e-01 /Users/lab/Documents/surprise_project/surprise/stim/1_effect.mov 1013 03-Apr-2018 10:18:32 -9.621782e+01 3.185128e+02 1 0
60am28_f19 379 22 45 45 45 right 1 5.000000e-01 /Users/lab/Documents/surprise_project/surprise/stim/6_noeffect.mov 863 03-Apr-2018 10:18:35 -2.361184e+02 -4.962713e+02 0 0
60am28_f19 379 23 47 -45 45 left 1 5.000000e-01 /Users/lab/Documents/surprise_project/surprise/stim/6_noeffect.mov 729 03-Apr-2018 10:18:38 1.919344e+02 1.198714e+02 0 0
60am28_f19 379 24 38 45 -45 right 1 5.000000e-01 /Users/lab/Documents/surprise_project/surprise/stim/5_noeffect.mov 901 03-Apr-2018 10:18:55 2.325285e+02 3.848194e+02 0 1
60am28_f19 379 25 27 -45 45 left 1 5.000000e-01 /Users/lab/Documents/surprise_project/surprise/stim/4_effect.mov 766 03-Apr-2018 10:18:58 6.366419e+00 2.191765e+02 1 0
60am28_f19 379 26 26 45 -45 right 1 5.000000e-01 /Users/lab/Documents/surprise_project/surprise/stim/4_effect.mov 866 03-Apr-2018 10:19:01 -1.768944e+02 8.007137e+01 1 0
60am28_f19 379 27 41 45 45 right 1 5.000000e-01 /Users/lab/Documents/surprise_project/surprise/stim/6_effect.mov 998 03-Apr-2018 10:19:04 -1.540956e+02 3.115718e+02 1 0
60am28_f19 379 28 14 45 -45 right 1 5.000000e-01 /Users/lab/Documents/surprise_project/surprise/stim/2_noeffect.mov 977 03-Apr-2018 10:19:29 -4.232739e+02 -3.062662e+02 0 1
60am28_f19 379 29 21 45 45 right 1 5.000000e-01 /Users/lab/Documents/surprise_project/surprise/stim/3_noeffect.mov 700 03-Apr-2018 10:19:32 -1.505766e+02 2.858512e+02 0 0
60am28_f19 379 30 40 -45 -45 left 1 5.000000e-01 /Users/lab/Documents/surprise_project/surprise/stim/5_noeffect.mov 911 03-Apr-2018 10:19:35 -1.091238e+02 4.913116e+02 0 0
60am28_f19 379 31 19 -45 45 left 1 5.000000e-01 /Users/lab/Documents/surprise_project/surprise/stim/3_effect.mov 646 03-Apr-2018 10:19:38 4.182983e+01 3.580580e+02 1 0
60am28_f19 379 32 18 45 -45 right 1 5.000000e-01 /Users/lab/Documents/surprise_project/surprise/stim/3_effect.mov 878 03-Apr-2018 10:19:57 -3.053372e+02 2.058830e+02 1 1
60am28_f19 379 33 2 45 -45 right 1 5.000000e-01 /Users/lab/Documents/surprise_project/surprise/stim/1_effect.mov 796 03-Apr-2018 10:20:00 2.045194e+02 1.176948e+02 1 0
60am28_f19 379 34 15 -45 45 left 1 5.000000e-01 /Users/lab/Documents/surprise_project/surprise/stim/2_noeffect.mov 849 03-Apr-2018 10:20:03 -1.591223e+02 9.934719e+01 0 0
60am28_f19 379 35 4 -45 -45 left 1 5.000000e-01 /Users/lab/Documents/surprise_project/surprise/stim/1_effect.mov 865 03-Apr-2018 10:20:06 4.714123e+02 -1.414979e+02 1 0
60am28_f19 379 36 69 45 45 right 1 5.000000e-01 /Users/lab/Documents/surprise_project/surprise/stim/9_noeffect.mov 929 03-Apr-2018 10:20:28 -2.313560e+02 2.288709e+02 0 1
60am28_f19 379 37 6 45 -45 right 1 5.000000e-01 /Users/lab/Documents/surprise_project/surprise/stim/1_noeffect.mov 796 03-Apr-2018 10:20:31 -3.065950e+02 3.245065e+02 1 0
60am28_f19 379 38 65 45 45 right 1 5.000000e-01 /Users/lab/Documents/surprise_project/surprise/stim/9_effect.mov 783 03-Apr-2018 10:20:35 4.757641e+01 2.397301e+02 1 0
60am28_f19 379 39 68 -45 -45 left 1 5.000000e-01 /Users/lab/Documents/surprise_project/surprise/stim/9_effect.mov 1181 03-Apr-2018 10:20:38 -3.730644e+02 -3.143746e+02 1 0
60am28_f19 379 40 70 45 -45 right 1 5.000000e-01 /Users/lab/Documents/surprise_project/surprise/stim/9_noeffect.mov 817 03-Apr-2018 10:21:00 -1.128284e+02 2.377459e+02 0 1
60am28_f19 379 41 54 45 -45 right 1 5.000000e-01 /Users/lab/Documents/surprise_project/surprise/stim/7_noeffect.mov 816 03-Apr-2018 10:21:03 -4.147749e+02 -3.486665e+02 0 0
60am28_f19 379 42 11 -45 45 left 1 5.000000e-01 /Users/lab/Documents/surprise_project/surprise/stim/2_effect.mov 745 03-Apr-2018 10:21:06 -4.562002e+02 3.427355e+02 1 0
60am28_f19 379 43 46 45 -45 right 1 5.000000e-01 /Users/lab/Documents/surprise_project/surprise/stim/6_noeffect.mov 678 03-Apr-2018 10:21:09 -3.740597e+01 3.696153e+02 0 0
60am28_f19 379 44 52 -45 -45 left 1 5.000000e-01 /Users/lab/Documents/surprise_project/surprise/stim/7_effect.mov 1329 03-Apr-2018 10:21:39 3.917633e+02 -2.625309e+02 1 1
60am28_f19 379 45 64 -45 -45 left 1 5.000000e-01 /Users/lab/Documents/surprise_project/surprise/stim/8_noeffect.mov 894 03-Apr-2018 10:21:42 3.292995e+02 6.161135e+01 0 0
60am28_f19 379 46 16 -45 -45 left 1 5.000000e-01 /Users/lab/Documents/surprise_project/surprise/stim/2_noeffect.mov 748 03-Apr-2018 10:21:45 -9.837925e+01 3.951801e+02 0 0
60am28_f19 379 47 28 -45 -45 left 1 5.000000e-01 /Users/lab/Documents/surprise_project/surprise/stim/4_effect.mov 911 03-Apr-2018 10:21:49 -1.675733e+02 3.415095e+02 1 0
60am28_f19 379 48 7 -45 45 left 1 5.000000e-01 /Users/lab/Documents/surprise_project/surprise/stim/1_noeffect.mov 795 03-Apr-2018 10:22:14 -4.250394e+02 2.502839e+02 1 1
60am28_f19 379 49 72 -45 -45 left 1 5.000000e-01 /Users/lab/Documents/surprise_project/surprise/stim/9_noeffect.mov 949 03-Apr-2018 10:22:17 -4.579953e+02 -3.605607e+02 0 0
60am28_f19 379 50 61 45 45 right 1 5.000000e-01 /Users/lab/Documents/surprise_project/surprise/stim/8_noeffect.mov 829 03-Apr-2018 10:22:20 1.479309e+02 3.372617e+02 0 0
60am28_f19 379 51 44 -45 -45 left 1 5.000000e-01 /Users/lab/Documents/surprise_project/surprise/stim/6_effect.mov 847 03-Apr-2018 10:22:23 2.414081e+02 -1.238228e+02 1 0
60am28_f19 379 52 50 45 -45 right 1 5.000000e-01 /Users/lab/Documents/surprise_project/surprise/stim/7_effect.mov 846 03-Apr-2018 10:22:43 -6.592859e+01 3.956860e+02 1 1
60am28_f19 379 53 25 45 45 right 1 5.000000e-01 /Users/lab/Documents/surprise_project/surprise/stim/4_effect.mov 999 03-Apr-2018 10:22:46 -3.428409e+02 -8.246168e+01 1 0
60am28_f19 379 54 3 -45 45 left 1 5.000000e-01 /Users/lab/Documents/surprise_project/surprise/stim/1_effect.mov 695 03-Apr-2018 10:22:49 -3.813649e+01 6.325769e+01 1 0
60am28_f19 379 55 33 45 45 right 1 5.000000e-01 /Users/lab/Documents/surprise_project/surprise/stim/5_effect.mov 879 03-Apr-2018 10:22:52 4.841314e+02 -3.407097e+02 1 0
60am28_f19 379 56 67 -45 45 left 1 5.000000e-01 /Users/lab/Documents/surprise_project/surprise/stim/9_effect.mov 743 03-Apr-2018 10:23:14 -3.338819e+02 3.481927e+02 1 1
60am28_f19 379 57 30 45 -45 right 1 5.000000e-01 /Users/lab/Documents/surprise_project/surprise/stim/4_noeffect.mov 662 03-Apr-2018 10:23:17 -2.227684e+02 1.494234e+02 0 0
60am28_f19 379 58 17 45 45 right 1 5.000000e-01 /Users/lab/Documents/surprise_project/surprise/stim/3_effect.mov 632 03-Apr-2018 10:23:20 -1.113668e+02 4.707459e+02 1 0
60am28_f19 379 59 23 -45 45 left 1 5.000000e-01 /Users/lab/Documents/surprise_project/surprise/stim/3_noeffect.mov 532 03-Apr-2018 10:23:23 -2.980155e+02 -4.929173e+02 0 0
60am28_f19 379 60 5 45 45 right 1 5.000000e-01 /Users/lab/Documents/surprise_project/surprise/stim/1_noeffect.mov 1196 03-Apr-2018 10:23:48 4.826149e+02 -2.379472e+02 1 1
60am28_f19 379 61 53 45 45 right 1 5.000000e-01 /Users/lab/Documents/surprise_project/surprise/stim/7_noeffect.mov 1261 03-Apr-2018 10:23:52 4.012209e+02 -4.163441e+02 0 0
60am28_f19 379 62 24 -45 -45 left 1 5.000000e-01 /Users/lab/Documents/surprise_project/surprise/stim/3_noeffect.mov 945 03-Apr-2018 10:23:55 -1.311058e+02 1.132359e+02 0 0
60am28_f19 379 63 22 45 -45 right 1 5.000000e-01 /Users/lab/Documents/surprise_project/surprise/stim/3_noeffect.mov 766 03-Apr-2018 10:23:58 -4.368289e+02 4.953075e+02 0 0
60am28_f19 379 64 71 -45 45 left 1 5.000000e-01 /Users/lab/Documents/surprise_project/surprise/stim/9_noeffect.mov 711 03-Apr-2018 10:24:20 -2.042176e+02 -3.480962e+02 0 1
60am28_f19 379 65 51 -45 45 left 1 5.000000e-01 /Users/lab/Documents/surprise_project/surprise/stim/7_effect.mov 781 03-Apr-2018 10:24:23 2.379601e+02 3.371968e+02 1 0
60am28_f19 379 66 43 -45 45 left 1 5.000000e-01 /Users/lab/Documents/surprise_project/surprise/stim/6_effect.mov 645 03-Apr-2018 10:24:26 1.336689e+02 -3.423567e+02 1 0
60am28_f19 379 67 57 45 45 right 1 5.000000e-01 /Users/lab/Documents/surprise_project/surprise/stim/8_effect.mov 796 03-Apr-2018 10:24:29 -6.335343e+01 1.884055e+02 1 0
60am28_f19 379 68 36 -45 45 left 1 5.000000e-01 /Users/lab/Documents/surprise_project/surprise/stim/5_effect.mov 728 03-Apr-2018 10:24:46 -4.760516e+01 8.896435e+01 1 1
60am28_f19 379 69 29 45 45 right 1 5.000000e-01 /Users/lab/Documents/surprise_project/surprise/stim/4_noeffect.mov 766 03-Apr-2018 10:24:49 2.423298e+02 2.147228e+02 0 0
60am28_f19 379 70 10 45 -45 right 1 5.000000e-01 /Users/lab/Documents/surprise_project/surprise/stim/2_effect.mov 682 03-Apr-2018 10:24:52 1.652641e+02 4.680506e+02 1 0
60am28_f19 379 71 8 -45 -45 left 1 5.000000e-01 /Users/lab/Documents/surprise_project/surprise/stim/1_noeffect.mov 1133 03-Apr-2018 10:24:56 -2.896998e+02 -3.106705e+02 1 0
60am28_f19 379 72 48 -45 -45 left 1 5.000000e-01 /Users/lab/Documents/surprise_project/surprise/stim/6_noeffect.mov 849 03-Apr-2018 10:24:59 4.688708e+02 1.585517e+02 0 0
