subject_name subjectNumber block iTrial unshuffled_trial targetOrientation flankersOrientation response correct onscreen_stim_duration magicShows rt date time_of_day deltaX deltaY surpriseClip isClipTrial isSurprise
fr_fa_1997_05_26_034_f 858 3 1 1 29 45 45 right 1 3 /Users/lab/Documents/experiments/2019/surprise/stim/4_noeffect.mov 962 08-May-2019 10:28:32 3.528013e+02 2.978171e+02 0 1
fr_fa_1997_05_26_034_f 858 3 2 1 13 45 45 right 1 3 /Users/lab/Documents/experiments/2019/surprise/stim/2_noeffect.mov 793 08-May-2019 10:28:36 2.716684e+01 2.528781e+02 0 0
fr_fa_1997_05_26_034_f 858 3 3 1 54 45 -45 right 1 3 /Users/lab/Documents/experiments/2019/surprise/stim/7_noeffect.mov 646 08-May-2019 10:28:39 -7.307144e+01 4.082144e+02 0 0
fr_fa_1997_05_26_034_f 858 3 4 1 60 -45 -45 left 1 3 /Users/lab/Documents/experiments/2019/surprise/stim/8_effect.mov 1332 08-May-2019 10:29:00 1.169692e+02 9.706222e+00 1 1
fr_fa_1997_05_26_034_f 858 3 5 1 31 -45 45 left 1 3 /Users/lab/Documents/experiments/2019/surprise/stim/4_noeffect.mov 652 08-May-2019 10:29:03 4.665722e+02 -4.280522e+02 0 0
fr_fa_1997_05_26_034_f 858 3 6 1 16 -45 -45 left 1 3 /Users/lab/Documents/experiments/2019/surprise/stim/2_noeffect.mov 766 08-May-2019 10:29:06 -3.189426e+01 -4.977660e+02 0 0
fr_fa_1997_05_26_034_f 858 3 7 1 8 -45 -45 left 1 3 /Users/lab/Documents/experiments/2019/surprise/stim/1_noeffect.mov 903 08-May-2019 10:29:09 -2.668714e+02 5.822817e+01 1 0
fr_fa_1997_05_26_034_f 858 3 8 1 40 -45 -45 left 1 3 /Users/lab/Documents/experiments/2019/surprise/stim/5_noeffect.mov 879 08-May-2019 10:29:26 1.716884e+02 4.852910e+02 0 1
fr_fa_1997_05_26_034_f 858 3 9 1 12 -45 -45 left 1 3 /Users/lab/Documents/experiments/2019/surprise/stim/2_effect.mov 702 08-May-2019 10:29:29 4.814439e+02 -7.124136e+01 1 0
fr_fa_1997_05_26_034_f 858 3 10 1 50 45 -45 right 1 3 /Users/lab/Documents/experiments/2019/surprise/stim/7_effect.mov 735 08-May-2019 10:29:32 -1.195127e+02 -2.033181e+02 1 0
fr_fa_1997_05_26_034_f 858 3 11 1 6 45 -45 right 1 3 /Users/lab/Documents/experiments/2019/surprise/stim/1_noeffect.mov 619 08-May-2019 10:29:35 2.350854e+02 1.288987e+02 1 0
fr_fa_1997_05_26_034_f 858 3 12 1 4 -45 -45 left 1 3 /Users/lab/Documents/experiments/2019/surprise/stim/1_effect.mov 1098 08-May-2019 10:30:00 3.726507e+02 -1.608606e+01 1 1
fr_fa_1997_05_26_034_f 858 3 13 1 9 45 45 right 1 3 /Users/lab/Documents/experiments/2019/surprise/stim/2_effect.mov 940 08-May-2019 10:30:04 -9.250608e+01 -4.878439e+02 1 0
fr_fa_1997_05_26_034_f 858 3 14 1 34 45 -45 right 1 3 /Users/lab/Documents/experiments/2019/surprise/stim/5_effect.mov 714 08-May-2019 10:30:07 -7.533956e+01 1.084065e+02 1 0
fr_fa_1997_05_26_034_f 858 3 15 1 53 45 45 left 0 3 /Users/lab/Documents/experiments/2019/surprise/stim/7_noeffect.mov 550 08-May-2019 10:30:10 -3.739362e+02 3.905725e+02 0 0
fr_fa_1997_05_26_034_f 858 3 16 1 28 -45 -45 left 1 3 /Users/lab/Documents/experiments/2019/surprise/stim/4_effect.mov 1025 08-May-2019 10:30:27 7.175072e+00 -4.060827e+02 1 1
fr_fa_1997_05_26_034_f 858 3 17 1 3 -45 45 left 1 3 /Users/lab/Documents/experiments/2019/surprise/stim/1_effect.mov 703 08-May-2019 10:30:30 1.810341e+02 3.556077e+02 1 0
fr_fa_1997_05_26_034_f 858 3 18 1 67 -45 45 left 1 3 /Users/lab/Documents/experiments/2019/surprise/stim/9_effect.mov 648 08-May-2019 10:30:33 3.144040e+02 8.695802e+01 1 0
fr_fa_1997_05_26_034_f 858 3 19 1 41 45 45 right 1 3 /Users/lab/Documents/experiments/2019/surprise/stim/6_effect.mov 836 08-May-2019 10:30:36 -1.003818e+02 3.059938e+02 1 0
fr_fa_1997_05_26_034_f 858 3 20 1 52 -45 -45 left 1 3 /Users/lab/Documents/experiments/2019/surprise/stim/7_effect.mov 1095 08-May-2019 10:30:56 -2.036588e+02 2.457103e+02 1 1
fr_fa_1997_05_26_034_f 858 3 21 1 39 -45 45 left 1 3 /Users/lab/Documents/experiments/2019/surprise/stim/5_noeffect.mov 602 08-May-2019 10:30:59 -2.886279e+02 6.037899e+01 0 0
fr_fa_1997_05_26_034_f 858 3 22 1 63 -45 45 left 1 3 /Users/lab/Documents/experiments/2019/surprise/stim/8_noeffect.mov 618 08-May-2019 10:31:01 -4.946646e+02 -1.695751e+02 0 0
fr_fa_1997_05_26_034_f 858 3 23 1 57 45 45 right 1 3 /Users/lab/Documents/experiments/2019/surprise/stim/8_effect.mov 821 08-May-2019 10:31:05 1.481341e+02 -2.896798e+02 1 0
fr_fa_1997_05_26_034_f 858 3 24 1 36 -45 -45 left 1 3 /Users/lab/Documents/experiments/2019/surprise/stim/5_effect.mov 918 08-May-2019 10:31:22 -1.480340e+02 -4.211551e+02 1 1
fr_fa_1997_05_26_034_f 858 3 25 1 32 -45 -45 left 1 3 /Users/lab/Documents/experiments/2019/surprise/stim/4_noeffect.mov 738 08-May-2019 10:31:25 2.109113e+02 8.008253e+01 0 0
fr_fa_1997_05_26_034_f 858 3 26 1 68 -45 -45 left 1 3 /Users/lab/Documents/experiments/2019/surprise/stim/9_effect.mov 611 08-May-2019 10:31:28 7.484324e+01 -7.621334e+00 1 0
fr_fa_1997_05_26_034_f 858 3 27 1 72 -45 -45 left 1 3 /Users/lab/Documents/experiments/2019/surprise/stim/9_noeffect.mov 623 08-May-2019 10:31:30 -3.374146e+02 2.996947e+02 0 0
fr_fa_1997_05_26_034_f 858 3 28 1 19 -45 45 left 1 3 /Users/lab/Documents/experiments/2019/surprise/stim/3_effect.mov 868 08-May-2019 10:31:49 -3.424973e+02 -3.940007e+02 1 1
fr_fa_1997_05_26_034_f 858 3 29 1 30 45 -45 right 1 3 /Users/lab/Documents/experiments/2019/surprise/stim/4_noeffect.mov 763 08-May-2019 10:31:52 2.410593e+01 -1.601465e+02 0 0
fr_fa_1997_05_26_034_f 858 3 30 1 5 45 45 right 1 3 /Users/lab/Documents/experiments/2019/surprise/stim/1_noeffect.mov 713 08-May-2019 10:31:55 -2.386628e+01 -2.651995e+02 1 0
fr_fa_1997_05_26_034_f 858 3 31 1 22 45 -45 right 1 3 /Users/lab/Documents/experiments/2019/surprise/stim/3_noeffect.mov 671 08-May-2019 10:31:58 -3.838769e+02 -4.536453e+02 0 0
fr_fa_1997_05_26_034_f 858 3 32 1 10 45 -45 right 1 3 /Users/lab/Documents/experiments/2019/surprise/stim/2_effect.mov 871 08-May-2019 10:32:24 -4.089766e+02 3.947035e+02 1 1
fr_fa_1997_05_26_034_f 858 3 33 1 61 45 45 right 1 3 /Users/lab/Documents/experiments/2019/surprise/stim/8_noeffect.mov 640 08-May-2019 10:32:27 -6.537067e+01 -2.788530e+02 0 0
fr_fa_1997_05_26_034_f 858 3 34 1 62 45 -45 right 1 3 /Users/lab/Documents/experiments/2019/surprise/stim/8_noeffect.mov 556 08-May-2019 10:32:30 -1.456157e+02 4.877392e+02 0 0
fr_fa_1997_05_26_034_f 858 3 35 1 38 45 -45 right 1 3 /Users/lab/Documents/experiments/2019/surprise/stim/5_noeffect.mov 595 08-May-2019 10:32:33 -4.683621e+02 -2.366472e+02 0 0
fr_fa_1997_05_26_034_f 858 3 36 1 66 45 -45 right 1 3 /Users/lab/Documents/experiments/2019/surprise/stim/9_effect.mov 925 08-May-2019 10:32:55 -3.802586e+02 1.319898e+02 1 1
fr_fa_1997_05_26_034_f 858 3 37 1 51 -45 45 left 1 3 /Users/lab/Documents/experiments/2019/surprise/stim/7_effect.mov 674 08-May-2019 10:32:58 4.849329e+02 2.782979e+02 1 0
fr_fa_1997_05_26_034_f 858 3 38 1 24 -45 -45 left 1 3 /Users/lab/Documents/experiments/2019/surprise/stim/3_noeffect.mov 923 08-May-2019 10:33:01 -4.528862e+02 -1.014283e+02 0 0
fr_fa_1997_05_26_034_f 858 3 39 1 11 -45 45 left 1 3 /Users/lab/Documents/experiments/2019/surprise/stim/2_effect.mov 624 08-May-2019 10:33:04 3.490633e+02 -3.099551e+02 1 0
fr_fa_1997_05_26_034_f 858 3 40 1 23 -45 45 left 1 3 /Users/lab/Documents/experiments/2019/surprise/stim/3_noeffect.mov 708 08-May-2019 10:33:22 -2.813548e+02 2.826722e+02 0 1
fr_fa_1997_05_26_034_f 858 3 41 1 26 45 -45 right 1 3 /Users/lab/Documents/experiments/2019/surprise/stim/4_effect.mov 908 08-May-2019 10:33:26 2.378828e+01 -7.587519e+01 1 0
fr_fa_1997_05_26_034_f 858 3 42 1 69 45 45 right 1 3 /Users/lab/Documents/experiments/2019/surprise/stim/9_noeffect.mov 912 08-May-2019 10:33:29 1.485113e+02 1.483876e+02 0 0
fr_fa_1997_05_26_034_f 858 3 43 1 56 -45 -45 left 1 3 /Users/lab/Documents/experiments/2019/surprise/stim/7_noeffect.mov 659 08-May-2019 10:33:32 -2.194722e+02 -2.863616e+01 0 0
fr_fa_1997_05_26_034_f 858 3 44 1 27 -45 45 left 1 3 /Users/lab/Documents/experiments/2019/surprise/stim/4_effect.mov 771 08-May-2019 10:33:49 3.214244e+02 -2.695203e+02 1 1
fr_fa_1997_05_26_034_f 858 3 45 1 64 -45 -45 left 1 3 /Users/lab/Documents/experiments/2019/surprise/stim/8_noeffect.mov 427 08-May-2019 10:33:52 -1.222021e+02 -4.325822e+02 0 0
fr_fa_1997_05_26_034_f 858 3 46 1 15 -45 45 left 1 3 /Users/lab/Documents/experiments/2019/surprise/stim/2_noeffect.mov 714 08-May-2019 10:33:55 -3.742336e+02 -3.212077e+02 0 0
fr_fa_1997_05_26_034_f 858 3 47 1 65 45 45 right 1 3 /Users/lab/Documents/experiments/2019/surprise/stim/9_effect.mov 761 08-May-2019 10:33:58 -1.256510e+02 3.330544e+02 1 0
fr_fa_1997_05_26_034_f 858 3 48 1 33 45 45 right 1 3 /Users/lab/Documents/experiments/2019/surprise/stim/5_effect.mov 762 08-May-2019 10:34:15 -3.252807e+02 3.618471e+02 1 1
fr_fa_1997_05_26_034_f 858 3 49 1 43 -45 45 left 1 3 /Users/lab/Documents/experiments/2019/surprise/stim/6_effect.mov 779 08-May-2019 10:34:18 4.008111e+02 -3.680795e+02 1 0
fr_fa_1997_05_26_034_f 858 3 50 1 1 45 45 right 1 3 /Users/lab/Documents/experiments/2019/surprise/stim/1_effect.mov 541 08-May-2019 10:34:21 -2.949591e+01 -4.620512e+01 1 0
fr_fa_1997_05_26_034_f 858 3 51 1 71 -45 45 left 1 3 /Users/lab/Documents/experiments/2019/surprise/stim/9_noeffect.mov 756 08-May-2019 10:34:24 3.378000e+02 -4.426130e+02 0 0
fr_fa_1997_05_26_034_f 858 3 52 1 18 45 -45 right 1 3 /Users/lab/Documents/experiments/2019/surprise/stim/3_effect.mov 876 08-May-2019 10:34:42 1.834512e+02 3.892026e+02 1 1
fr_fa_1997_05_26_034_f 858 3 53 1 20 -45 -45 left 1 3 /Users/lab/Documents/experiments/2019/surprise/stim/3_effect.mov 757 08-May-2019 10:34:45 -3.500437e+02 2.680327e+02 1 0
fr_fa_1997_05_26_034_f 858 3 54 1 46 45 -45 right 1 3 /Users/lab/Documents/experiments/2019/surprise/stim/6_noeffect.mov 599 08-May-2019 10:34:48 8.138104e+01 -3.771844e+02 0 0
fr_fa_1997_05_26_034_f 858 3 55 1 37 45 45 right 1 3 /Users/lab/Documents/experiments/2019/surprise/stim/5_noeffect.mov 526 08-May-2019 10:34:51 8.602082e+01 -3.556920e+02 0 0
fr_fa_1997_05_26_034_f 858 3 56 1 36 -45 45 left 1 3 /Users/lab/Documents/experiments/2019/surprise/stim/5_effect.mov 602 08-May-2019 10:35:08 6.948221e+00 1.880581e+02 1 1
fr_fa_1997_05_26_034_f 858 3 57 1 2 45 -45 right 1 3 /Users/lab/Documents/experiments/2019/surprise/stim/1_effect.mov 620 08-May-2019 10:35:11 1.336797e+02 -3.534381e+02 1 0
fr_fa_1997_05_26_034_f 858 3 58 1 7 -45 45 left 1 3 /Users/lab/Documents/experiments/2019/surprise/stim/1_noeffect.mov 724 08-May-2019 10:35:14 3.814366e+02 -4.172180e+02 1 0
fr_fa_1997_05_26_034_f 858 3 59 1 47 -45 45 left 1 3 /Users/lab/Documents/experiments/2019/surprise/stim/6_noeffect.mov 460 08-May-2019 10:35:17 -3.877509e+02 -8.882646e+01 0 0
fr_fa_1997_05_26_034_f 858 3 60 1 49 45 45 left 0 3 /Users/lab/Documents/experiments/2019/surprise/stim/7_effect.mov 625 08-May-2019 10:35:36 -1.499256e+02 1.408127e+01 1 1
fr_fa_1997_05_26_034_f 858 3 61 1 70 45 -45 right 1 3 /Users/lab/Documents/experiments/2019/surprise/stim/9_noeffect.mov 807 08-May-2019 10:35:39 1.661909e+02 -4.796320e+02 0 0
fr_fa_1997_05_26_034_f 858 3 62 1 55 -45 45 left 1 3 /Users/lab/Documents/experiments/2019/surprise/stim/7_noeffect.mov 672 08-May-2019 10:35:42 4.496530e+02 -4.724786e+02 0 0
fr_fa_1997_05_26_034_f 858 3 63 1 44 -45 -45 left 1 3 /Users/lab/Documents/experiments/2019/surprise/stim/6_effect.mov 922 08-May-2019 10:35:45 -1.081896e+02 1.195093e+02 1 0
fr_fa_1997_05_26_034_f 858 3 64 1 14 45 -45 right 1 3 /Users/lab/Documents/experiments/2019/surprise/stim/2_noeffect.mov 749 08-May-2019 10:36:10 -2.872888e+02 -1.932108e+02 0 1
fr_fa_1997_05_26_034_f 858 3 65 1 21 45 45 right 1 3 /Users/lab/Documents/experiments/2019/surprise/stim/3_noeffect.mov 734 08-May-2019 10:36:13 -4.858705e+02 1.935915e+01 0 0
fr_fa_1997_05_26_034_f 858 3 66 1 17 45 45 right 1 3 /Users/lab/Documents/experiments/2019/surprise/stim/3_effect.mov 657 08-May-2019 10:36:16 2.871772e+02 3.184121e+02 1 0
fr_fa_1997_05_26_034_f 858 3 67 1 42 45 -45 right 1 3 /Users/lab/Documents/experiments/2019/surprise/stim/6_effect.mov 562 08-May-2019 10:36:19 -3.595370e+02 3.605493e+02 1 0
fr_fa_1997_05_26_034_f 858 3 68 1 45 45 45 right 1 3 /Users/lab/Documents/experiments/2019/surprise/stim/6_noeffect.mov 914 08-May-2019 10:36:34 1.606828e+02 -1.817533e+02 0 1
fr_fa_1997_05_26_034_f 858 3 69 1 59 -45 45 right 0 3 /Users/lab/Documents/experiments/2019/surprise/stim/8_effect.mov 616 08-May-2019 10:36:37 -3.344054e+02 -7.702078e+01 1 0
fr_fa_1997_05_26_034_f 858 3 70 1 25 45 45 right 1 3 /Users/lab/Documents/experiments/2019/surprise/stim/4_effect.mov 718 08-May-2019 10:36:40 -2.514587e+02 2.949708e+02 1 0
fr_fa_1997_05_26_034_f 858 3 71 1 48 -45 -45 left 1 3 /Users/lab/Documents/experiments/2019/surprise/stim/6_noeffect.mov 893 08-May-2019 10:36:43 2.801048e+02 -4.913680e+02 0 0
fr_fa_1997_05_26_034_f 858 3 72 1 58 45 -45 right 1 3 /Users/lab/Documents/experiments/2019/surprise/stim/8_effect.mov 658 08-May-2019 10:36:46 3.973102e+02 4.266757e+02 1 0
