subject_name subjectNumber block iTrial unshuffled_trial targetOrientation flankersOrientation response correct onscreen_stim_duration magicShows rt date time_of_day deltaX deltaY surpriseClip isClipTrial isSurprise
re_st_ 1999_08_08_232_f 935 3 1 1 13 45 45 right 1 3 /Users/lab/Documents/experiments/2019/surprise/stim/2_noeffect.mov 1987 16-May-2019 11:44:56 1.165695e+02 3.626981e+02 0 1
re_st_ 1999_08_08_232_f 935 3 2 1 64 -45 -45 left 1 3 /Users/lab/Documents/experiments/2019/surprise/stim/8_noeffect.mov 1343 16-May-2019 11:45:00 9.868400e+01 6.424333e+01 0 0
re_st_ 1999_08_08_232_f 935 3 3 1 40 -45 -45 left 1 3 /Users/lab/Documents/experiments/2019/surprise/stim/5_noeffect.mov 1273 16-May-2019 11:45:04 -4.079317e+02 2.970217e+02 0 0
re_st_ 1999_08_08_232_f 935 3 4 1 28 -45 -45 left 1 3 /Users/lab/Documents/experiments/2019/surprise/stim/4_effect.mov 1404 16-May-2019 11:45:21 3.555818e+02 -4.345179e+02 1 1
re_st_ 1999_08_08_232_f 935 3 5 1 57 45 45 right 1 3 /Users/lab/Documents/experiments/2019/surprise/stim/8_effect.mov 942 16-May-2019 11:45:25 -9.389807e+01 -4.625707e+02 1 0
re_st_ 1999_08_08_232_f 935 3 6 1 6 45 -45 right 1 3 /Users/lab/Documents/experiments/2019/surprise/stim/1_noeffect.mov 1035 16-May-2019 11:45:28 -2.904216e+01 4.557964e+02 1 0
re_st_ 1999_08_08_232_f 935 3 7 1 12 -45 -45 left 1 3 /Users/lab/Documents/experiments/2019/surprise/stim/2_effect.mov 1226 16-May-2019 11:45:32 -4.731702e+02 -5.483576e+01 1 0
re_st_ 1999_08_08_232_f 935 3 8 1 66 45 -45 right 1 3 /Users/lab/Documents/experiments/2019/surprise/stim/9_effect.mov 1244 16-May-2019 11:45:54 -2.826440e+02 -3.374152e+02 1 1
re_st_ 1999_08_08_232_f 935 3 9 1 2 45 -45 right 1 3 /Users/lab/Documents/experiments/2019/surprise/stim/1_effect.mov 1372 16-May-2019 11:45:58 3.725248e+02 3.972243e+02 1 0
re_st_ 1999_08_08_232_f 935 3 10 1 8 -45 -45 left 1 3 /Users/lab/Documents/experiments/2019/surprise/stim/1_noeffect.mov 983 16-May-2019 11:46:01 4.384617e+02 3.744535e+02 1 0
re_st_ 1999_08_08_232_f 935 3 11 1 50 45 -45 right 1 3 /Users/lab/Documents/experiments/2019/surprise/stim/7_effect.mov 882 16-May-2019 11:46:04 -1.786554e+02 1.666159e+02 1 0
re_st_ 1999_08_08_232_f 935 3 12 1 68 -45 -45 left 1 3 /Users/lab/Documents/experiments/2019/surprise/stim/9_effect.mov 1325 16-May-2019 11:46:27 -1.863283e+01 -3.432727e+02 1 1
re_st_ 1999_08_08_232_f 935 3 13 1 16 -45 -45 left 1 3 /Users/lab/Documents/experiments/2019/surprise/stim/2_noeffect.mov 875 16-May-2019 11:46:30 4.447612e+02 1.100056e+02 0 0
re_st_ 1999_08_08_232_f 935 3 14 1 22 45 -45 right 1 3 /Users/lab/Documents/experiments/2019/surprise/stim/3_noeffect.mov 978 16-May-2019 11:46:33 4.256970e+02 -3.649633e+02 0 0
re_st_ 1999_08_08_232_f 935 3 15 1 65 45 45 right 1 3 /Users/lab/Documents/experiments/2019/surprise/stim/9_effect.mov 1091 16-May-2019 11:46:37 -3.372815e+02 4.249721e+01 1 0
re_st_ 1999_08_08_232_f 935 3 16 1 1 45 45 right 1 3 /Users/lab/Documents/experiments/2019/surprise/stim/1_effect.mov 1591 16-May-2019 11:47:02 -1.183031e+02 2.766546e+02 1 1
re_st_ 1999_08_08_232_f 935 3 17 1 10 45 -45 right 1 3 /Users/lab/Documents/experiments/2019/surprise/stim/2_effect.mov 919 16-May-2019 11:47:06 3.010534e+02 3.850768e+02 1 0
re_st_ 1999_08_08_232_f 935 3 18 1 33 45 45 right 1 3 /Users/lab/Documents/experiments/2019/surprise/stim/5_effect.mov 893 16-May-2019 11:47:09 -3.297398e+02 3.599011e+02 1 0
re_st_ 1999_08_08_232_f 935 3 19 1 51 -45 45 left 1 3 /Users/lab/Documents/experiments/2019/surprise/stim/7_effect.mov 847 16-May-2019 11:47:12 -2.061484e+02 -1.852936e+02 1 0
re_st_ 1999_08_08_232_f 935 3 20 1 7 -45 45 left 1 3 /Users/lab/Documents/experiments/2019/surprise/stim/1_noeffect.mov 895 16-May-2019 11:47:37 -4.578207e+02 -2.529029e+02 1 1
re_st_ 1999_08_08_232_f 935 3 21 1 29 45 45 right 1 3 /Users/lab/Documents/experiments/2019/surprise/stim/4_noeffect.mov 874 16-May-2019 11:47:41 1.705396e+02 4.334242e+02 0 0
re_st_ 1999_08_08_232_f 935 3 22 1 17 45 45 right 1 3 /Users/lab/Documents/experiments/2019/surprise/stim/3_effect.mov 868 16-May-2019 11:47:44 -3.359412e+02 -3.746759e+02 1 0
re_st_ 1999_08_08_232_f 935 3 23 1 15 -45 45 left 1 3 /Users/lab/Documents/experiments/2019/surprise/stim/2_noeffect.mov 1567 16-May-2019 11:47:48 4.938004e+01 2.268209e+02 0 0
re_st_ 1999_08_08_232_f 935 3 24 1 59 -45 45 left 1 3 /Users/lab/Documents/experiments/2019/surprise/stim/8_effect.mov 1303 16-May-2019 11:48:09 -3.307198e+02 -7.661757e+01 1 1
re_st_ 1999_08_08_232_f 935 3 25 1 18 45 -45 right 1 3 /Users/lab/Documents/experiments/2019/surprise/stim/3_effect.mov 777 16-May-2019 11:48:12 1.325182e+02 4.782658e+02 1 0
re_st_ 1999_08_08_232_f 935 3 26 1 21 45 45 right 1 3 /Users/lab/Documents/experiments/2019/surprise/stim/3_noeffect.mov 961 16-May-2019 11:48:16 2.914701e+02 2.324015e+02 0 0
re_st_ 1999_08_08_232_f 935 3 27 1 62 45 -45 right 1 3 /Users/lab/Documents/experiments/2019/surprise/stim/8_noeffect.mov 610 16-May-2019 11:48:19 -2.894418e+02 -4.168994e+02 0 0
re_st_ 1999_08_08_232_f 935 3 28 1 3 -45 45 left 1 3 /Users/lab/Documents/experiments/2019/surprise/stim/1_effect.mov 2103 16-May-2019 11:48:45 4.823697e+02 4.833263e+02 1 1
re_st_ 1999_08_08_232_f 935 3 29 1 61 45 45 right 1 3 /Users/lab/Documents/experiments/2019/surprise/stim/8_noeffect.mov 1067 16-May-2019 11:48:49 3.071357e+02 -1.382088e+02 0 0
re_st_ 1999_08_08_232_f 935 3 30 1 67 -45 45 left 1 3 /Users/lab/Documents/experiments/2019/surprise/stim/9_effect.mov 694 16-May-2019 11:48:52 -1.116301e+02 3.071536e+02 1 0
re_st_ 1999_08_08_232_f 935 3 31 1 60 -45 -45 left 1 3 /Users/lab/Documents/experiments/2019/surprise/stim/8_effect.mov 1259 16-May-2019 11:48:55 -3.142130e+02 1.418777e+02 1 0
re_st_ 1999_08_08_232_f 935 3 32 1 37 45 45 right 1 3 /Users/lab/Documents/experiments/2019/surprise/stim/5_noeffect.mov 1523 16-May-2019 11:49:13 -4.427449e+02 -3.380669e+02 0 1
re_st_ 1999_08_08_232_f 935 3 33 1 63 -45 45 left 1 3 /Users/lab/Documents/experiments/2019/surprise/stim/8_noeffect.mov 699 16-May-2019 11:49:16 1.833626e+02 -4.458779e+02 0 0
re_st_ 1999_08_08_232_f 935 3 34 1 41 45 45 right 1 3 /Users/lab/Documents/experiments/2019/surprise/stim/6_effect.mov 826 16-May-2019 11:49:19 4.931415e+02 -4.776830e+02 1 0
re_st_ 1999_08_08_232_f 935 3 35 1 52 -45 -45 left 1 3 /Users/lab/Documents/experiments/2019/surprise/stim/7_effect.mov 1292 16-May-2019 11:49:22 -1.934373e+02 -2.699163e+02 1 0
re_st_ 1999_08_08_232_f 935 3 36 1 5 45 45 right 1 3 /Users/lab/Documents/experiments/2019/surprise/stim/1_noeffect.mov 1599 16-May-2019 11:49:48 -3.247295e+02 1.625668e+02 1 1
re_st_ 1999_08_08_232_f 935 3 37 1 19 -45 45 left 1 3 /Users/lab/Documents/experiments/2019/surprise/stim/3_effect.mov 961 16-May-2019 11:49:52 8.396170e+01 3.559875e+02 1 0
re_st_ 1999_08_08_232_f 935 3 38 1 44 -45 -45 left 1 3 /Users/lab/Documents/experiments/2019/surprise/stim/6_effect.mov 1036 16-May-2019 11:49:55 3.183916e+02 -2.245648e+02 1 0
re_st_ 1999_08_08_232_f 935 3 39 1 56 -45 -45 left 1 3 /Users/lab/Documents/experiments/2019/surprise/stim/7_noeffect.mov 795 16-May-2019 11:49:58 1.825642e+01 -3.174172e+02 0 0
re_st_ 1999_08_08_232_f 935 3 40 1 55 -45 45 left 1 3 /Users/lab/Documents/experiments/2019/surprise/stim/7_noeffect.mov 903 16-May-2019 11:50:17 -2.994887e+02 2.210624e+02 0 1
re_st_ 1999_08_08_232_f 935 3 41 1 26 45 -45 right 1 3 /Users/lab/Documents/experiments/2019/surprise/stim/4_effect.mov 588 16-May-2019 11:50:20 -3.068755e+02 -1.525978e+02 1 0
re_st_ 1999_08_08_232_f 935 3 42 1 49 45 45 right 1 3 /Users/lab/Documents/experiments/2019/surprise/stim/7_effect.mov 799 16-May-2019 11:50:23 -5.461467e+01 1.257217e+02 1 0
re_st_ 1999_08_08_232_f 935 3 43 1 69 45 45 right 1 3 /Users/lab/Documents/experiments/2019/surprise/stim/9_noeffect.mov 471 16-May-2019 11:50:26 -2.931687e+02 -3.457225e+02 0 0
re_st_ 1999_08_08_232_f 935 3 44 1 70 45 -45 right 1 3 /Users/lab/Documents/experiments/2019/surprise/stim/9_noeffect.mov 791 16-May-2019 11:50:48 2.414526e+02 -3.874524e+02 0 1
re_st_ 1999_08_08_232_f 935 3 45 1 43 -45 45 left 1 3 /Users/lab/Documents/experiments/2019/surprise/stim/6_effect.mov 630 16-May-2019 11:50:51 -3.965580e+02 -2.536810e+02 1 0
re_st_ 1999_08_08_232_f 935 3 46 1 53 45 45 right 1 3 /Users/lab/Documents/experiments/2019/surprise/stim/7_noeffect.mov 989 16-May-2019 11:50:54 4.299693e+02 4.206783e+02 0 0
re_st_ 1999_08_08_232_f 935 3 47 1 27 -45 45 left 1 3 /Users/lab/Documents/experiments/2019/surprise/stim/4_effect.mov 713 16-May-2019 11:50:57 -3.440124e+02 -1.710990e+02 1 0
re_st_ 1999_08_08_232_f 935 3 48 1 46 45 -45 right 1 3 /Users/lab/Documents/experiments/2019/surprise/stim/6_noeffect.mov 1941 16-May-2019 11:51:13 -1.908406e+02 4.630473e+02 0 1
re_st_ 1999_08_08_232_f 935 3 49 1 4 -45 -45 left 1 3 /Users/lab/Documents/experiments/2019/surprise/stim/1_effect.mov 899 16-May-2019 11:51:17 4.549820e+02 1.354007e+02 1 0
re_st_ 1999_08_08_232_f 935 3 50 1 30 45 -45 right 1 3 /Users/lab/Documents/experiments/2019/surprise/stim/4_noeffect.mov 966 16-May-2019 11:51:20 -4.556224e+02 4.308556e+02 0 0
re_st_ 1999_08_08_232_f 935 3 51 1 45 45 45 right 1 3 /Users/lab/Documents/experiments/2019/surprise/stim/6_noeffect.mov 1042 16-May-2019 11:51:23 1.584696e+02 -2.969743e+01 0 0
re_st_ 1999_08_08_232_f 935 3 52 1 25 45 45 right 1 3 /Users/lab/Documents/experiments/2019/surprise/stim/4_effect.mov 2285 16-May-2019 11:51:42 2.217834e+02 -4.027504e+02 1 1
re_st_ 1999_08_08_232_f 935 3 53 1 36 -45 -45 left 1 3 /Users/lab/Documents/experiments/2019/surprise/stim/5_effect.mov 784 16-May-2019 11:51:45 4.580651e+01 -5.139160e+01 1 0
re_st_ 1999_08_08_232_f 935 3 54 1 9 45 45 right 1 3 /Users/lab/Documents/experiments/2019/surprise/stim/2_effect.mov 623 16-May-2019 11:51:48 -1.686489e+01 -4.068903e+01 1 0
re_st_ 1999_08_08_232_f 935 3 55 1 58 45 -45 right 1 3 /Users/lab/Documents/experiments/2019/surprise/stim/8_effect.mov 815 16-May-2019 11:51:51 4.780808e+02 2.595235e+02 1 0
re_st_ 1999_08_08_232_f 935 3 56 1 14 45 -45 right 1 3 /Users/lab/Documents/experiments/2019/surprise/stim/2_noeffect.mov 855 16-May-2019 11:52:16 -4.200057e+02 -6.598078e+01 0 1
re_st_ 1999_08_08_232_f 935 3 57 1 47 -45 45 left 1 3 /Users/lab/Documents/experiments/2019/surprise/stim/6_noeffect.mov 607 16-May-2019 11:52:19 -1.606787e+02 -2.414851e+02 0 0
re_st_ 1999_08_08_232_f 935 3 58 1 54 45 -45 right 1 3 /Users/lab/Documents/experiments/2019/surprise/stim/7_noeffect.mov 781 16-May-2019 11:52:22 3.732160e+02 4.637066e+02 0 0
re_st_ 1999_08_08_232_f 935 3 59 1 24 -45 -45 left 1 3 /Users/lab/Documents/experiments/2019/surprise/stim/3_noeffect.mov 708 16-May-2019 11:52:25 3.188620e+02 -1.476051e+02 0 0
re_st_ 1999_08_08_232_f 935 3 60 1 42 45 -45 right 1 3 /Users/lab/Documents/experiments/2019/surprise/stim/6_effect.mov 1164 16-May-2019 11:52:41 -9.134959e+01 -7.012203e+01 1 1
re_st_ 1999_08_08_232_f 935 3 61 1 11 -45 45 left 1 3 /Users/lab/Documents/experiments/2019/surprise/stim/2_effect.mov 597 16-May-2019 11:52:44 -3.632776e+02 -8.530152e+01 1 0
re_st_ 1999_08_08_232_f 935 3 62 1 20 -45 -45 left 1 3 /Users/lab/Documents/experiments/2019/surprise/stim/3_effect.mov 812 16-May-2019 11:52:47 -5.909556e+01 -7.885375e+01 1 0
re_st_ 1999_08_08_232_f 935 3 63 1 38 45 -45 right 1 3 /Users/lab/Documents/experiments/2019/surprise/stim/5_noeffect.mov 822 16-May-2019 11:52:50 -1.806910e+01 -2.324277e+02 0 0
re_st_ 1999_08_08_232_f 935 3 64 1 72 -45 -45 left 1 3 /Users/lab/Documents/experiments/2019/surprise/stim/9_noeffect.mov 1304 16-May-2019 11:53:13 -3.802420e+02 -5.956722e+01 0 1
re_st_ 1999_08_08_232_f 935 3 65 1 32 -45 -45 left 1 3 /Users/lab/Documents/experiments/2019/surprise/stim/4_noeffect.mov 941 16-May-2019 11:53:16 -1.951556e+02 2.880904e+02 0 0
re_st_ 1999_08_08_232_f 935 3 66 1 39 -45 45 left 1 3 /Users/lab/Documents/experiments/2019/surprise/stim/5_noeffect.mov 528 16-May-2019 11:53:19 -1.703027e+02 -5.507617e+01 0 0
re_st_ 1999_08_08_232_f 935 3 67 1 23 -45 45 left 1 3 /Users/lab/Documents/experiments/2019/surprise/stim/3_noeffect.mov 625 16-May-2019 11:53:22 4.031165e+02 1.667052e+02 0 0
re_st_ 1999_08_08_232_f 935 3 68 1 36 -45 45 left 1 3 /Users/lab/Documents/experiments/2019/surprise/stim/5_effect.mov 1254 16-May-2019 11:53:39 2.623973e+02 8.516797e+01 1 1
re_st_ 1999_08_08_232_f 935 3 69 1 31 -45 45 left 1 3 /Users/lab/Documents/experiments/2019/surprise/stim/4_noeffect.mov 651 16-May-2019 11:53:42 4.006261e+02 -2.285605e+01 0 0
re_st_ 1999_08_08_232_f 935 3 70 1 71 -45 45 left 1 3 /Users/lab/Documents/experiments/2019/surprise/stim/9_noeffect.mov 653 16-May-2019 11:53:45 3.360167e+02 -4.804837e+02 0 0
re_st_ 1999_08_08_232_f 935 3 71 1 48 -45 -45 left 1 3 /Users/lab/Documents/experiments/2019/surprise/stim/6_noeffect.mov 790 16-May-2019 11:53:48 3.710527e+02 -3.753754e+02 0 0
re_st_ 1999_08_08_232_f 935 3 72 1 34 45 -45 right 1 3 /Users/lab/Documents/experiments/2019/surprise/stim/5_effect.mov 589 16-May-2019 11:53:51 -5.154982e+01 1.602484e+02 1 0
