subject_name subjectNumber iTrial unshuffled_trial targetOrientation flankersOrientation response correct onscreen_stim_duration magicShows rt date time_of_day deltaX deltaY surpriseClip isClipTrial
67kr22_f20 82 1 62 45 -45 right 1 5.000000e-01 /Users/lab/Documents/surprise_project/surprise/stim/8_noeffect.mov 1344 19-Mar-2018 13:36:05 4.116233e+02 4.940006e+02 0 1
67kr22_f20 82 2 27 -45 45 left 1 5.000000e-01 /Users/lab/Documents/surprise_project/surprise/stim/4_effect.mov 666 19-Mar-2018 13:36:08 3.596727e+02 2.919836e+02 1 0
67kr22_f20 82 3 5 45 45 right 1 5.000000e-01 /Users/lab/Documents/surprise_project/surprise/stim/1_noeffect.mov 699 19-Mar-2018 13:36:11 3.773842e+02 -4.946838e+02 1 0
67kr22_f20 82 4 17 45 45 right 1 5.000000e-01 /Users/lab/Documents/surprise_project/surprise/stim/3_effect.mov 1015 19-Mar-2018 13:36:29 -1.381920e+02 2.062118e+02 1 1
67kr22_f20 82 5 47 -45 45 left 1 5.000000e-01 /Users/lab/Documents/surprise_project/surprise/stim/6_noeffect.mov 750 19-Mar-2018 13:36:32 -2.925167e+02 1.341558e+02 0 0
67kr22_f20 82 6 26 45 -45 right 1 5.000000e-01 /Users/lab/Documents/surprise_project/surprise/stim/4_effect.mov 632 19-Mar-2018 13:36:35 -9.583969e+01 -1.003978e+02 1 0
67kr22_f20 82 7 33 45 45 right 1 5.000000e-01 /Users/lab/Documents/surprise_project/surprise/stim/5_effect.mov 648 19-Mar-2018 13:36:38 3.605716e+02 -1.945145e+02 1 0
67kr22_f20 82 8 53 45 45 right 1 5.000000e-01 /Users/lab/Documents/surprise_project/surprise/stim/7_noeffect.mov 742 19-Mar-2018 13:36:58 8.361798e+01 -4.440444e+02 0 1
67kr22_f20 82 9 1 45 45 right 1 5.000000e-01 /Users/lab/Documents/surprise_project/surprise/stim/1_effect.mov 480 19-Mar-2018 13:37:00 4.863174e+02 1.717505e+02 1 0
67kr22_f20 82 10 25 45 45 right 1 5.000000e-01 /Users/lab/Documents/surprise_project/surprise/stim/4_effect.mov 614 19-Mar-2018 13:37:03 -3.963176e+02 -9.712809e+01 1 0
67kr22_f20 82 11 41 45 45 right 1 5.000000e-01 /Users/lab/Documents/surprise_project/surprise/stim/6_effect.mov 422 19-Mar-2018 13:37:06 -1.263507e+02 -4.449007e+02 1 0
67kr22_f20 82 12 31 -45 45 left 1 5.000000e-01 /Users/lab/Documents/surprise_project/surprise/stim/4_noeffect.mov 747 19-Mar-2018 13:37:23 2.745487e+02 3.456880e+02 0 1
67kr22_f20 82 13 4 -45 -45 left 1 5.000000e-01 /Users/lab/Documents/surprise_project/surprise/stim/1_effect.mov 681 19-Mar-2018 13:37:26 -2.984103e+02 4.560015e+01 1 0
67kr22_f20 82 14 72 -45 -45 left 1 5.000000e-01 /Users/lab/Documents/surprise_project/surprise/stim/9_noeffect.mov 456 19-Mar-2018 13:37:29 2.036179e+02 -2.348925e+02 0 0
67kr22_f20 82 15 46 45 -45 right 1 5.000000e-01 /Users/lab/Documents/surprise_project/surprise/stim/6_noeffect.mov 476 19-Mar-2018 13:37:32 1.205781e+02 -2.501069e+02 0 0
67kr22_f20 82 16 52 -45 -45 left 1 5.000000e-01 /Users/lab/Documents/surprise_project/surprise/stim/7_effect.mov 912 19-Mar-2018 13:37:51 -3.467454e+02 5.489625e+01 1 1
67kr22_f20 82 17 23 -45 45 left 1 5.000000e-01 /Users/lab/Documents/surprise_project/surprise/stim/3_noeffect.mov 649 19-Mar-2018 13:37:54 -5.807768e+01 2.197556e+02 0 0
67kr22_f20 82 18 36 -45 -45 left 1 5.000000e-01 /Users/lab/Documents/surprise_project/surprise/stim/5_effect.mov 461 19-Mar-2018 13:37:57 -3.295950e+02 1.226693e+02 1 0
67kr22_f20 82 19 63 -45 45 right 0 5.000000e-01 /Users/lab/Documents/surprise_project/surprise/stim/8_noeffect.mov 516 19-Mar-2018 13:38:00 2.135181e+02 -2.313235e+01 0 0
67kr22_f20 82 20 45 45 45 right 1 5.000000e-01 /Users/lab/Documents/surprise_project/surprise/stim/6_noeffect.mov 864 19-Mar-2018 13:38:15 -3.108530e+02 8.204283e+01 0 1
67kr22_f20 82 21 22 45 -45 right 1 5.000000e-01 /Users/lab/Documents/surprise_project/surprise/stim/3_noeffect.mov 548 19-Mar-2018 13:38:18 1.346208e+02 -1.765773e+02 0 0
67kr22_f20 82 22 11 -45 45 left 1 5.000000e-01 /Users/lab/Documents/surprise_project/surprise/stim/2_effect.mov 699 19-Mar-2018 13:38:21 -4.031633e+02 4.089394e+02 1 0
67kr22_f20 82 23 20 -45 -45 left 1 5.000000e-01 /Users/lab/Documents/surprise_project/surprise/stim/3_effect.mov 614 19-Mar-2018 13:38:24 1.508059e+02 2.643094e+01 1 0
67kr22_f20 82 24 40 -45 -45 left 1 5.000000e-01 /Users/lab/Documents/surprise_project/surprise/stim/5_noeffect.mov 847 19-Mar-2018 13:38:41 2.957506e+02 -1.599746e+02 0 1
67kr22_f20 82 25 14 45 -45 right 1 5.000000e-01 /Users/lab/Documents/surprise_project/surprise/stim/2_noeffect.mov 897 19-Mar-2018 13:38:44 1.698479e+02 2.942499e+02 0 0
67kr22_f20 82 26 10 45 -45 right 1 5.000000e-01 /Users/lab/Documents/surprise_project/surprise/stim/2_effect.mov 831 19-Mar-2018 13:38:47 -3.394817e+02 -1.943231e+02 1 0
67kr22_f20 82 27 42 45 -45 right 1 5.000000e-01 /Users/lab/Documents/surprise_project/surprise/stim/6_effect.mov 1168 19-Mar-2018 13:38:51 4.074524e+02 8.776875e+01 1 0
67kr22_f20 82 28 44 -45 -45 left 1 5.000000e-01 /Users/lab/Documents/surprise_project/surprise/stim/6_effect.mov 912 19-Mar-2018 13:39:06 3.286124e+02 -4.674325e+02 1 1
67kr22_f20 82 29 64 -45 -45 left 1 5.000000e-01 /Users/lab/Documents/surprise_project/surprise/stim/8_noeffect.mov 732 19-Mar-2018 13:39:09 4.810261e+02 -1.221588e+02 0 0
67kr22_f20 82 30 54 45 -45 right 1 5.000000e-01 /Users/lab/Documents/surprise_project/surprise/stim/7_noeffect.mov 666 19-Mar-2018 13:39:12 -8.202345e+01 -4.326569e+02 0 0
67kr22_f20 82 31 43 -45 45 left 1 5.000000e-01 /Users/lab/Documents/surprise_project/surprise/stim/6_effect.mov 649 19-Mar-2018 13:39:15 4.364673e+02 -1.528453e+02 1 0
67kr22_f20 82 32 9 45 45 right 1 5.000000e-01 /Users/lab/Documents/surprise_project/surprise/stim/2_effect.mov 913 19-Mar-2018 13:39:41 -6.157222e+01 1.971324e+02 1 1
67kr22_f20 82 33 32 -45 -45 left 1 5.000000e-01 /Users/lab/Documents/surprise_project/surprise/stim/4_noeffect.mov 731 19-Mar-2018 13:39:44 -4.166398e+02 3.490742e+02 0 0
67kr22_f20 82 34 71 -45 45 left 1 5.000000e-01 /Users/lab/Documents/surprise_project/surprise/stim/9_noeffect.mov 548 19-Mar-2018 13:39:47 -4.813254e+02 8.655129e+01 0 0
67kr22_f20 82 35 19 -45 45 left 1 5.000000e-01 /Users/lab/Documents/surprise_project/surprise/stim/3_effect.mov 666 19-Mar-2018 13:39:50 -3.505512e+02 -1.770677e+02 1 0
67kr22_f20 82 36 15 -45 45 left 1 5.000000e-01 /Users/lab/Documents/surprise_project/surprise/stim/2_noeffect.mov 764 19-Mar-2018 13:40:15 3.786024e+02 -1.889043e+02 0 1
67kr22_f20 82 37 12 -45 -45 left 1 5.000000e-01 /Users/lab/Documents/surprise_project/surprise/stim/2_effect.mov 549 19-Mar-2018 13:40:17 -1.735691e+01 -7.466667e+01 1 0
67kr22_f20 82 38 69 45 45 right 1 5.000000e-01 /Users/lab/Documents/surprise_project/surprise/stim/9_noeffect.mov 615 19-Mar-2018 13:40:20 2.287395e+02 -1.932496e+02 0 0
67kr22_f20 82 39 13 45 45 right 1 5.000000e-01 /Users/lab/Documents/surprise_project/surprise/stim/2_noeffect.mov 616 19-Mar-2018 13:40:23 -1.795698e+02 -2.260640e+02 0 0
67kr22_f20 82 40 65 45 45 right 1 5.000000e-01 /Users/lab/Documents/surprise_project/surprise/stim/9_effect.mov 962 19-Mar-2018 13:40:45 1.953943e+02 4.795882e+02 1 1
67kr22_f20 82 41 70 45 -45 right 1 5.000000e-01 /Users/lab/Documents/surprise_project/surprise/stim/9_noeffect.mov 797 19-Mar-2018 13:40:49 -3.559432e+01 3.789455e+02 0 0
67kr22_f20 82 42 49 45 45 right 1 5.000000e-01 /Users/lab/Documents/surprise_project/surprise/stim/7_effect.mov 411 19-Mar-2018 13:40:51 1.256549e+02 7.593576e+00 1 0
67kr22_f20 82 43 34 45 -45 right 1 5.000000e-01 /Users/lab/Documents/surprise_project/surprise/stim/5_effect.mov 549 19-Mar-2018 13:40:54 3.173897e+01 4.304308e+02 1 0
67kr22_f20 82 44 55 -45 45 left 1 5.000000e-01 /Users/lab/Documents/surprise_project/surprise/stim/7_noeffect.mov 751 19-Mar-2018 13:41:14 3.854292e+02 1.316474e+02 0 1
67kr22_f20 82 45 21 45 45 right 1 5.000000e-01 /Users/lab/Documents/surprise_project/surprise/stim/3_noeffect.mov 598 19-Mar-2018 13:41:16 -4.479206e+02 -3.884328e+02 0 0
67kr22_f20 82 46 29 45 45 right 1 5.000000e-01 /Users/lab/Documents/surprise_project/surprise/stim/4_noeffect.mov 532 19-Mar-2018 13:41:19 1.916870e+02 3.297614e+02 0 0
67kr22_f20 82 47 60 -45 -45 left 1 5.000000e-01 /Users/lab/Documents/surprise_project/surprise/stim/8_effect.mov 548 19-Mar-2018 13:41:22 2.912509e+02 3.759649e+02 1 0
67kr22_f20 82 48 57 45 45 right 1 5.000000e-01 /Users/lab/Documents/surprise_project/surprise/stim/8_effect.mov 796 19-Mar-2018 13:41:43 -4.148505e+02 1.483384e+02 1 1
67kr22_f20 82 49 67 -45 45 left 1 5.000000e-01 /Users/lab/Documents/surprise_project/surprise/stim/9_effect.mov 531 19-Mar-2018 13:41:46 1.895367e+02 -1.178021e+02 1 0
67kr22_f20 82 50 6 45 -45 right 1 5.000000e-01 /Users/lab/Documents/surprise_project/surprise/stim/1_noeffect.mov 547 19-Mar-2018 13:41:49 -2.234558e+02 -2.982399e+02 1 0
67kr22_f20 82 51 16 -45 -45 left 1 5.000000e-01 /Users/lab/Documents/surprise_project/surprise/stim/2_noeffect.mov 698 19-Mar-2018 13:41:52 3.203951e+02 -2.994498e+02 0 0
67kr22_f20 82 52 59 -45 45 left 1 5.000000e-01 /Users/lab/Documents/surprise_project/surprise/stim/8_effect.mov 764 19-Mar-2018 13:42:13 -3.679249e+02 -6.026534e+01 1 1
67kr22_f20 82 53 18 45 -45 right 1 5.000000e-01 /Users/lab/Documents/surprise_project/surprise/stim/3_effect.mov 615 19-Mar-2018 13:42:16 -2.282543e+01 -4.875226e+02 1 0
67kr22_f20 82 54 36 -45 45 left 1 5.000000e-01 /Users/lab/Documents/surprise_project/surprise/stim/5_effect.mov 631 19-Mar-2018 13:42:19 -4.366107e+02 -4.657922e+01 1 0
67kr22_f20 82 55 28 -45 -45 left 1 5.000000e-01 /Users/lab/Documents/surprise_project/surprise/stim/4_effect.mov 598 19-Mar-2018 13:42:22 -4.846430e+02 1.769116e+02 1 0
67kr22_f20 82 56 48 -45 -45 left 1 5.000000e-01 /Users/lab/Documents/surprise_project/surprise/stim/6_noeffect.mov 645 19-Mar-2018 13:42:37 1.208107e+01 -1.132999e+02 0 1
67kr22_f20 82 57 3 -45 45 left 1 5.000000e-01 /Users/lab/Documents/surprise_project/surprise/stim/1_effect.mov 583 19-Mar-2018 13:42:40 4.099750e+02 -1.415349e+02 1 0
67kr22_f20 82 58 2 45 -45 right 1 5.000000e-01 /Users/lab/Documents/surprise_project/surprise/stim/1_effect.mov 699 19-Mar-2018 13:42:43 4.278671e+02 -1.383384e+02 1 0
67kr22_f20 82 59 51 -45 45 left 1 5.000000e-01 /Users/lab/Documents/surprise_project/surprise/stim/7_effect.mov 550 19-Mar-2018 13:42:46 -7.120849e+01 -1.401656e+02 1 0
67kr22_f20 82 60 61 45 45 right 1 5.000000e-01 /Users/lab/Documents/surprise_project/surprise/stim/8_noeffect.mov 896 19-Mar-2018 13:43:07 -2.922615e+02 1.048571e+02 0 1
67kr22_f20 82 61 50 45 -45 right 1 5.000000e-01 /Users/lab/Documents/surprise_project/surprise/stim/7_effect.mov 632 19-Mar-2018 13:43:10 -6.787273e+01 4.233130e+02 1 0
67kr22_f20 82 62 66 45 -45 right 1 5.000000e-01 /Users/lab/Documents/surprise_project/surprise/stim/9_effect.mov 748 19-Mar-2018 13:43:13 1.531920e+01 3.065974e+02 1 0
67kr22_f20 82 63 24 -45 -45 left 1 5.000000e-01 /Users/lab/Documents/surprise_project/surprise/stim/3_noeffect.mov 666 19-Mar-2018 13:43:16 -1.153066e+02 3.860689e+02 0 0
67kr22_f20 82 64 58 45 -45 right 1 5.000000e-01 /Users/lab/Documents/surprise_project/surprise/stim/8_effect.mov 1096 19-Mar-2018 13:43:37 3.774094e+02 2.552117e+02 1 1
67kr22_f20 82 65 68 -45 -45 left 1 5.000000e-01 /Users/lab/Documents/surprise_project/surprise/stim/9_effect.mov 763 19-Mar-2018 13:43:41 -4.068608e+02 -3.455613e+02 1 0
67kr22_f20 82 66 38 45 -45 right 1 5.000000e-01 /Users/lab/Documents/surprise_project/surprise/stim/5_noeffect.mov 597 19-Mar-2018 13:43:44 1.106311e+02 -2.576816e+02 0 0
67kr22_f20 82 67 8 -45 -45 left 1 5.000000e-01 /Users/lab/Documents/surprise_project/surprise/stim/1_noeffect.mov 443 19-Mar-2018 13:43:46 -1.102601e+02 1.706180e+02 1 0
67kr22_f20 82 68 7 -45 45 left 1 5.000000e-01 /Users/lab/Documents/surprise_project/surprise/stim/1_noeffect.mov 779 19-Mar-2018 13:44:11 3.004582e+02 8.811534e+01 1 1
67kr22_f20 82 69 37 45 45 right 1 5.000000e-01 /Users/lab/Documents/surprise_project/surprise/stim/5_noeffect.mov 550 19-Mar-2018 13:44:14 9.638773e+01 -2.346578e+02 0 0
67kr22_f20 82 70 30 45 -45 right 1 5.000000e-01 /Users/lab/Documents/surprise_project/surprise/stim/4_noeffect.mov 748 19-Mar-2018 13:44:17 -3.295414e+02 -3.695693e+02 0 0
67kr22_f20 82 71 56 -45 -45 left 1 5.000000e-01 /Users/lab/Documents/surprise_project/surprise/stim/7_noeffect.mov 475 19-Mar-2018 13:44:20 2.117291e+02 -2.322695e+02 0 0
67kr22_f20 82 72 39 -45 45 left 1 5.000000e-01 /Users/lab/Documents/surprise_project/surprise/stim/5_noeffect.mov 615 19-Mar-2018 13:44:23 -2.478855e+01 3.678191e+02 0 0
