subject_name subjectNumber iTrial unshuffled_trial targetOrientation flankersOrientation response correct onscreen_stim_duration magicShows rt date time_of_day deltaX deltaY surpriseClip isClipTrial
56gr14_f19 427 1 47 -45 45 left 1 5.000000e-01 /Users/lab/Documents/surprise_project/surprise/stim/6_noeffect.mov 932 04-Apr-2018 15:34:53 3.752742e+02 -7.427181e+01 0 1
56gr14_f19 427 2 24 -45 -45 left 1 5.000000e-01 /Users/lab/Documents/surprise_project/surprise/stim/3_noeffect.mov 879 04-Apr-2018 15:34:56 -2.245802e+02 -2.820247e+02 0 0
56gr14_f19 427 3 34 45 -45 right 1 5.000000e-01 /Users/lab/Documents/surprise_project/surprise/stim/5_effect.mov 595 04-Apr-2018 15:34:59 -1.406170e+02 -2.458384e+02 1 0
56gr14_f19 427 4 41 45 45 right 1 5.000000e-01 /Users/lab/Documents/surprise_project/surprise/stim/6_effect.mov 1194 04-Apr-2018 15:35:15 3.556054e+02 9.043920e+01 1 1
56gr14_f19 427 5 44 -45 -45 left 1 5.000000e-01 /Users/lab/Documents/surprise_project/surprise/stim/6_effect.mov 946 04-Apr-2018 15:35:18 -1.513382e+01 -3.482620e+02 1 0
56gr14_f19 427 6 43 -45 45 left 1 5.000000e-01 /Users/lab/Documents/surprise_project/surprise/stim/6_effect.mov 679 04-Apr-2018 15:35:22 1.823153e+02 1.828019e+02 1 0
56gr14_f19 427 7 60 -45 -45 right 0 5.000000e-01 /Users/lab/Documents/surprise_project/surprise/stim/8_effect.mov 783 04-Apr-2018 15:35:25 -1.998776e+02 -4.549372e+02 1 0
56gr14_f19 427 8 66 45 -45 right 1 5.000000e-01 /Users/lab/Documents/surprise_project/surprise/stim/9_effect.mov 1444 04-Apr-2018 15:35:47 -2.252725e+02 4.545704e+02 1 1
56gr14_f19 427 9 70 45 -45 right 1 5.000000e-01 /Users/lab/Documents/surprise_project/surprise/stim/9_noeffect.mov 716 04-Apr-2018 15:35:51 -3.914086e+02 -9.918196e+01 0 0
56gr14_f19 427 10 28 -45 -45 left 1 5.000000e-01 /Users/lab/Documents/surprise_project/surprise/stim/4_effect.mov 847 04-Apr-2018 15:35:54 -4.983123e+02 5.149632e+01 1 0
56gr14_f19 427 11 9 45 45 right 1 5.000000e-01 /Users/lab/Documents/surprise_project/surprise/stim/2_effect.mov 866 04-Apr-2018 15:35:57 -2.021227e+02 1.889636e+02 1 0
56gr14_f19 427 12 20 -45 -45 left 1 5.000000e-01 /Users/lab/Documents/surprise_project/surprise/stim/3_effect.mov 1093 04-Apr-2018 15:36:16 -3.116185e+02 4.119924e+02 1 1
56gr14_f19 427 13 26 45 -45 right 1 5.000000e-01 /Users/lab/Documents/surprise_project/surprise/stim/4_effect.mov 682 04-Apr-2018 15:36:19 -2.017224e+02 4.088103e+02 1 0
56gr14_f19 427 14 36 -45 45 left 1 5.000000e-01 /Users/lab/Documents/surprise_project/surprise/stim/5_effect.mov 830 04-Apr-2018 15:36:22 4.763766e+02 -4.510206e+02 1 0
56gr14_f19 427 15 2 45 -45 right 1 5.000000e-01 /Users/lab/Documents/surprise_project/surprise/stim/1_effect.mov 1049 04-Apr-2018 15:36:26 4.307826e+02 1.117156e+02 1 0
56gr14_f19 427 16 58 45 -45 right 1 5.000000e-01 /Users/lab/Documents/surprise_project/surprise/stim/8_effect.mov 994 04-Apr-2018 15:36:47 3.561257e+02 -1.355422e+02 1 1
56gr14_f19 427 17 10 45 -45 right 1 5.000000e-01 /Users/lab/Documents/surprise_project/surprise/stim/2_effect.mov 797 04-Apr-2018 15:36:50 -4.055781e+02 4.831785e+01 1 0
56gr14_f19 427 18 71 -45 45 left 1 5.000000e-01 /Users/lab/Documents/surprise_project/surprise/stim/9_noeffect.mov 632 04-Apr-2018 15:36:53 3.689141e+01 -3.395346e+02 0 0
56gr14_f19 427 19 46 45 -45 right 1 5.000000e-01 /Users/lab/Documents/surprise_project/surprise/stim/6_noeffect.mov 762 04-Apr-2018 15:36:56 -2.900239e+02 -2.951661e+02 0 0
56gr14_f19 427 20 62 45 -45 right 1 5.000000e-01 /Users/lab/Documents/surprise_project/surprise/stim/8_noeffect.mov 828 04-Apr-2018 15:37:17 3.856821e+02 4.400703e+02 0 1
56gr14_f19 427 21 8 -45 -45 left 1 5.000000e-01 /Users/lab/Documents/surprise_project/surprise/stim/1_noeffect.mov 662 04-Apr-2018 15:37:20 4.062054e+02 1.660335e+02 1 0
56gr14_f19 427 22 33 45 45 right 1 5.000000e-01 /Users/lab/Documents/surprise_project/surprise/stim/5_effect.mov 832 04-Apr-2018 15:37:24 -3.217196e+02 -2.214643e+02 1 0
56gr14_f19 427 23 42 45 -45 right 1 5.000000e-01 /Users/lab/Documents/surprise_project/surprise/stim/6_effect.mov 681 04-Apr-2018 15:37:27 1.810946e+02 4.771165e+02 1 0
56gr14_f19 427 24 59 -45 45 left 1 5.000000e-01 /Users/lab/Documents/surprise_project/surprise/stim/8_effect.mov 1360 04-Apr-2018 15:37:48 4.322002e+02 2.212786e+01 1 1
56gr14_f19 427 25 5 45 45 right 1 5.000000e-01 /Users/lab/Documents/surprise_project/surprise/stim/1_noeffect.mov 714 04-Apr-2018 15:37:51 3.387721e+02 3.506948e+02 1 0
56gr14_f19 427 26 11 -45 45 left 1 5.000000e-01 /Users/lab/Documents/surprise_project/surprise/stim/2_effect.mov 532 04-Apr-2018 15:37:54 -5.794788e+01 -1.988694e+02 1 0
56gr14_f19 427 27 21 45 45 right 1 5.000000e-01 /Users/lab/Documents/surprise_project/surprise/stim/3_noeffect.mov 713 04-Apr-2018 15:37:57 1.169572e+02 4.285772e+02 0 0
56gr14_f19 427 28 14 45 -45 right 1 5.000000e-01 /Users/lab/Documents/surprise_project/surprise/stim/2_noeffect.mov 877 04-Apr-2018 15:38:22 -3.455386e+02 1.782218e+01 0 1
56gr14_f19 427 29 48 -45 -45 left 1 5.000000e-01 /Users/lab/Documents/surprise_project/surprise/stim/6_noeffect.mov 550 04-Apr-2018 15:38:25 2.358502e+02 3.354721e+02 0 0
56gr14_f19 427 30 27 -45 45 left 1 5.000000e-01 /Users/lab/Documents/surprise_project/surprise/stim/4_effect.mov 645 04-Apr-2018 15:38:28 -1.426573e+02 9.881354e+01 1 0
56gr14_f19 427 31 40 -45 -45 left 1 5.000000e-01 /Users/lab/Documents/surprise_project/surprise/stim/5_noeffect.mov 681 04-Apr-2018 15:38:31 1.541688e+02 -1.197266e+02 0 0
56gr14_f19 427 32 50 45 -45 right 1 5.000000e-01 /Users/lab/Documents/surprise_project/surprise/stim/7_effect.mov 861 04-Apr-2018 15:38:51 -2.813504e+02 -7.258564e+01 1 1
56gr14_f19 427 33 23 -45 45 left 1 5.000000e-01 /Users/lab/Documents/surprise_project/surprise/stim/3_noeffect.mov 645 04-Apr-2018 15:38:54 4.438855e+02 6.052922e+01 0 0
56gr14_f19 427 34 69 45 45 right 1 5.000000e-01 /Users/lab/Documents/surprise_project/surprise/stim/9_noeffect.mov 545 04-Apr-2018 15:38:57 1.702033e+02 1.716565e+02 0 0
56gr14_f19 427 35 68 -45 -45 left 1 5.000000e-01 /Users/lab/Documents/surprise_project/surprise/stim/9_effect.mov 713 04-Apr-2018 15:39:00 -2.081876e+02 6.345242e+01 1 0
56gr14_f19 427 36 22 45 -45 right 1 5.000000e-01 /Users/lab/Documents/surprise_project/surprise/stim/3_noeffect.mov 811 04-Apr-2018 15:39:18 6.983126e+01 1.821798e+02 0 1
56gr14_f19 427 37 45 45 45 right 1 5.000000e-01 /Users/lab/Documents/surprise_project/surprise/stim/6_noeffect.mov 716 04-Apr-2018 15:39:21 -3.921221e+02 3.936073e+02 0 0
56gr14_f19 427 38 30 45 -45 right 1 5.000000e-01 /Users/lab/Documents/surprise_project/surprise/stim/4_noeffect.mov 614 04-Apr-2018 15:39:24 -9.339541e+01 1.419215e+02 0 0
56gr14_f19 427 39 16 -45 -45 left 1 5.000000e-01 /Users/lab/Documents/surprise_project/surprise/stim/2_noeffect.mov 565 04-Apr-2018 15:39:27 3.073749e+01 -1.873379e+02 0 0
56gr14_f19 427 40 15 -45 45 left 1 5.000000e-01 /Users/lab/Documents/surprise_project/surprise/stim/2_noeffect.mov 860 04-Apr-2018 15:39:52 -4.149790e+02 1.208505e+02 0 1
56gr14_f19 427 41 1 45 45 right 1 5.000000e-01 /Users/lab/Documents/surprise_project/surprise/stim/1_effect.mov 439 04-Apr-2018 15:39:55 1.294416e+02 -1.400859e+02 1 0
56gr14_f19 427 42 17 45 45 right 1 5.000000e-01 /Users/lab/Documents/surprise_project/surprise/stim/3_effect.mov 517 04-Apr-2018 15:39:58 -1.385989e+02 -3.183774e+02 1 0
56gr14_f19 427 43 39 -45 45 left 1 5.000000e-01 /Users/lab/Documents/surprise_project/surprise/stim/5_noeffect.mov 629 04-Apr-2018 15:40:01 -3.298390e+02 -1.221454e+02 0 0
56gr14_f19 427 44 37 45 45 right 1 5.000000e-01 /Users/lab/Documents/surprise_project/surprise/stim/5_noeffect.mov 1184 04-Apr-2018 15:40:18 4.936160e+02 2.655752e+02 0 1
56gr14_f19 427 45 7 -45 45 left 1 5.000000e-01 /Users/lab/Documents/surprise_project/surprise/stim/1_noeffect.mov 583 04-Apr-2018 15:40:21 -2.892811e+01 -2.597997e+02 1 0
56gr14_f19 427 46 38 45 -45 right 1 5.000000e-01 /Users/lab/Documents/surprise_project/surprise/stim/5_noeffect.mov 682 04-Apr-2018 15:40:24 2.106041e+02 -2.779454e+02 0 0
56gr14_f19 427 47 53 45 45 right 1 5.000000e-01 /Users/lab/Documents/surprise_project/surprise/stim/7_noeffect.mov 730 04-Apr-2018 15:40:27 4.029572e+02 4.287945e+02 0 0
56gr14_f19 427 48 52 -45 -45 right 0 5.000000e-01 /Users/lab/Documents/surprise_project/surprise/stim/7_effect.mov 1627 04-Apr-2018 15:40:57 2.031584e+02 2.833228e+02 1 1
56gr14_f19 427 49 61 45 45 right 1 5.000000e-01 /Users/lab/Documents/surprise_project/surprise/stim/8_noeffect.mov 1032 04-Apr-2018 15:41:01 3.608533e+01 -1.609584e+02 0 0
56gr14_f19 427 50 13 45 45 right 1 5.000000e-01 /Users/lab/Documents/surprise_project/surprise/stim/2_noeffect.mov 491 04-Apr-2018 15:41:04 2.577948e+02 2.983248e+02 0 0
56gr14_f19 427 51 19 -45 45 left 1 5.000000e-01 /Users/lab/Documents/surprise_project/surprise/stim/3_effect.mov 666 04-Apr-2018 15:41:07 1.472134e+02 3.481709e+02 1 0
56gr14_f19 427 52 36 -45 -45 left 1 5.000000e-01 /Users/lab/Documents/surprise_project/surprise/stim/5_effect.mov 861 04-Apr-2018 15:41:24 -4.297002e+02 -7.502876e+01 1 1
56gr14_f19 427 53 29 45 45 right 1 5.000000e-01 /Users/lab/Documents/surprise_project/surprise/stim/4_noeffect.mov 582 04-Apr-2018 15:41:27 -5.327981e+01 4.436960e+02 0 0
56gr14_f19 427 54 64 -45 -45 right 0 5.000000e-01 /Users/lab/Documents/surprise_project/surprise/stim/8_noeffect.mov 980 04-Apr-2018 15:41:30 7.874366e+01 -2.622667e+02 0 0
56gr14_f19 427 55 72 -45 -45 left 1 5.000000e-01 /Users/lab/Documents/surprise_project/surprise/stim/9_noeffect.mov 1166 04-Apr-2018 15:41:34 -4.664857e+02 -4.934278e+02 0 0
56gr14_f19 427 56 3 -45 45 left 1 5.000000e-01 /Users/lab/Documents/surprise_project/surprise/stim/1_effect.mov 1278 04-Apr-2018 15:41:59 7.362455e+01 8.272051e+01 1 1
56gr14_f19 427 57 4 -45 -45 left 1 5.000000e-01 /Users/lab/Documents/surprise_project/surprise/stim/1_effect.mov 962 04-Apr-2018 15:42:03 -1.377353e+02 2.261369e+02 1 0
56gr14_f19 427 58 32 -45 -45 left 1 5.000000e-01 /Users/lab/Documents/surprise_project/surprise/stim/4_noeffect.mov 948 04-Apr-2018 15:42:06 -4.303629e+02 -4.543371e+02 0 0
56gr14_f19 427 59 25 45 45 right 1 5.000000e-01 /Users/lab/Documents/surprise_project/surprise/stim/4_effect.mov 1050 04-Apr-2018 15:42:09 -3.485737e+02 -4.679206e+02 1 0
56gr14_f19 427 60 6 45 -45 right 1 5.000000e-01 /Users/lab/Documents/surprise_project/surprise/stim/1_noeffect.mov 813 04-Apr-2018 15:42:34 -2.144443e+02 -2.315591e+02 1 1
56gr14_f19 427 61 56 -45 -45 left 1 5.000000e-01 /Users/lab/Documents/surprise_project/surprise/stim/7_noeffect.mov 1396 04-Apr-2018 15:42:38 -3.978927e+02 -1.200663e+02 0 0
56gr14_f19 427 62 51 -45 45 left 1 5.000000e-01 /Users/lab/Documents/surprise_project/surprise/stim/7_effect.mov 829 04-Apr-2018 15:42:41 8.105281e+01 -3.822999e+02 1 0
56gr14_f19 427 63 63 -45 45 left 1 5.000000e-01 /Users/lab/Documents/surprise_project/surprise/stim/8_noeffect.mov 612 04-Apr-2018 15:42:44 2.807449e+02 -4.825430e+02 0 0
56gr14_f19 427 64 49 45 45 right 1 5.000000e-01 /Users/lab/Documents/surprise_project/surprise/stim/7_effect.mov 928 04-Apr-2018 15:43:04 -5.512924e+01 -1.903577e+00 1 1
56gr14_f19 427 65 12 -45 -45 left 1 5.000000e-01 /Users/lab/Documents/surprise_project/surprise/stim/2_effect.mov 1246 04-Apr-2018 15:43:08 2.219322e+00 2.626969e+02 1 0
56gr14_f19 427 66 57 45 45 right 1 5.000000e-01 /Users/lab/Documents/surprise_project/surprise/stim/8_effect.mov 932 04-Apr-2018 15:43:11 -3.916357e+02 4.825884e+02 1 0
56gr14_f19 427 67 18 45 -45 right 1 5.000000e-01 /Users/lab/Documents/surprise_project/surprise/stim/3_effect.mov 765 04-Apr-2018 15:43:14 -3.675044e+02 1.871889e+02 1 0
56gr14_f19 427 68 54 45 -45 right 1 5.000000e-01 /Users/lab/Documents/surprise_project/surprise/stim/7_noeffect.mov 759 04-Apr-2018 15:43:33 5.223944e+01 -4.115099e+02 0 1
56gr14_f19 427 69 67 -45 45 left 1 5.000000e-01 /Users/lab/Documents/surprise_project/surprise/stim/9_effect.mov 716 04-Apr-2018 15:43:36 4.131553e+02 -2.407916e+02 1 0
56gr14_f19 427 70 55 -45 45 left 1 5.000000e-01 /Users/lab/Documents/surprise_project/surprise/stim/7_noeffect.mov 632 04-Apr-2018 15:43:39 3.232614e+02 -2.763342e+02 0 0
56gr14_f19 427 71 31 -45 45 left 1 5.000000e-01 /Users/lab/Documents/surprise_project/surprise/stim/4_noeffect.mov 649 04-Apr-2018 15:43:42 1.561249e+02 1.964826e+02 0 0
56gr14_f19 427 72 65 45 45 right 1 5.000000e-01 /Users/lab/Documents/surprise_project/surprise/stim/9_effect.mov 632 04-Apr-2018 15:43:45 -4.257289e+02 6.862571e+01 1 0
