subject_name subjectNumber iTrial unshuffled_trial targetOrientation flankersOrientation response correct onscreen_stim_duration magicShows rt date time_of_day deltaX deltaY surpriseClip isClipTrial
43fr21_f20 407 1 68 -45 -45 left 1 5.000000e-01 /Users/lab/Documents/surprise_project/surprise/stim/9_effect.mov 643 03-Apr-2018 16:57:41 3.683116e+02 -7.956090e+01 1 1
43fr21_f20 407 2 55 -45 45 left 1 5.000000e-01 /Users/lab/Documents/surprise_project/surprise/stim/7_noeffect.mov 582 03-Apr-2018 16:57:44 4.431019e+02 -9.110608e+01 0 0
43fr21_f20 407 3 22 45 -45 right 1 5.000000e-01 /Users/lab/Documents/surprise_project/surprise/stim/3_noeffect.mov 599 03-Apr-2018 16:57:47 1.986985e+02 -2.801296e+02 0 0
43fr21_f20 407 4 62 45 -45 right 1 5.000000e-01 /Users/lab/Documents/surprise_project/surprise/stim/8_noeffect.mov 577 03-Apr-2018 16:58:08 -3.868782e+02 3.779766e+01 0 1
43fr21_f20 407 5 59 -45 45 left 1 5.000000e-01 /Users/lab/Documents/surprise_project/surprise/stim/8_effect.mov 711 03-Apr-2018 16:58:11 -1.758917e+02 -4.717078e+02 1 0
43fr21_f20 407 6 17 45 45 right 1 5.000000e-01 /Users/lab/Documents/surprise_project/surprise/stim/3_effect.mov 403 03-Apr-2018 16:58:14 -3.860809e+01 3.541520e+02 1 0
43fr21_f20 407 7 70 45 -45 right 1 5.000000e-01 /Users/lab/Documents/surprise_project/surprise/stim/9_noeffect.mov 566 03-Apr-2018 16:58:16 3.163530e+02 -1.907491e+02 0 0
43fr21_f20 407 8 2 45 -45 right 1 5.000000e-01 /Users/lab/Documents/surprise_project/surprise/stim/1_effect.mov 628 03-Apr-2018 16:58:41 -2.854969e+02 -2.120408e+01 1 1
43fr21_f20 407 9 53 45 45 right 1 5.000000e-01 /Users/lab/Documents/surprise_project/surprise/stim/7_noeffect.mov 667 03-Apr-2018 16:58:44 3.409813e+02 4.144428e+02 0 0
43fr21_f20 407 10 16 -45 -45 right 0 5.000000e-01 /Users/lab/Documents/surprise_project/surprise/stim/2_noeffect.mov 533 03-Apr-2018 16:58:47 1.471460e+02 4.357369e+02 0 0
43fr21_f20 407 11 4 -45 -45 left 1 5.000000e-01 /Users/lab/Documents/surprise_project/surprise/stim/1_effect.mov 644 03-Apr-2018 16:58:50 -1.105473e+02 -2.516508e+02 1 0
43fr21_f20 407 12 24 -45 -45 left 1 5.000000e-01 /Users/lab/Documents/surprise_project/surprise/stim/3_noeffect.mov 664 03-Apr-2018 16:59:08 -1.483857e+01 -1.381989e+02 0 1
43fr21_f20 407 13 49 45 45 right 1 5.000000e-01 /Users/lab/Documents/surprise_project/surprise/stim/7_effect.mov 565 03-Apr-2018 16:59:11 -2.528911e+01 2.124731e+02 1 0
43fr21_f20 407 14 27 -45 45 left 1 5.000000e-01 /Users/lab/Documents/surprise_project/surprise/stim/4_effect.mov 933 03-Apr-2018 16:59:14 4.024632e+02 4.300661e+02 1 0
43fr21_f20 407 15 45 45 45 right 1 5.000000e-01 /Users/lab/Documents/surprise_project/surprise/stim/6_noeffect.mov 530 03-Apr-2018 16:59:17 -1.463700e+02 -4.209074e+02 0 0
43fr21_f20 407 16 37 45 45 right 1 5.000000e-01 /Users/lab/Documents/surprise_project/surprise/stim/5_noeffect.mov 859 03-Apr-2018 16:59:34 -2.183046e+02 2.664778e+02 0 1
43fr21_f20 407 17 28 -45 -45 left 1 5.000000e-01 /Users/lab/Documents/surprise_project/surprise/stim/4_effect.mov 533 03-Apr-2018 16:59:37 -1.227665e+01 -3.894759e+02 1 0
43fr21_f20 407 18 42 45 -45 right 1 5.000000e-01 /Users/lab/Documents/surprise_project/surprise/stim/6_effect.mov 648 03-Apr-2018 16:59:40 -1.238916e+02 -4.761521e+02 1 0
43fr21_f20 407 19 18 45 -45 right 1 5.000000e-01 /Users/lab/Documents/surprise_project/surprise/stim/3_effect.mov 664 03-Apr-2018 16:59:43 -2.363974e+02 -2.396069e+02 1 0
43fr21_f20 407 20 72 -45 -45 left 1 5.000000e-01 /Users/lab/Documents/surprise_project/surprise/stim/9_noeffect.mov 745 03-Apr-2018 17:00:05 -2.782208e+02 6.628419e+01 0 1
43fr21_f20 407 21 10 45 -45 right 1 5.000000e-01 /Users/lab/Documents/surprise_project/surprise/stim/2_effect.mov 531 03-Apr-2018 17:00:07 -4.946970e+02 4.551203e+01 1 0
43fr21_f20 407 22 23 -45 45 left 1 5.000000e-01 /Users/lab/Documents/surprise_project/surprise/stim/3_noeffect.mov 493 03-Apr-2018 17:00:10 1.002935e+02 1.589968e+01 0 0
43fr21_f20 407 23 12 -45 -45 left 1 5.000000e-01 /Users/lab/Documents/surprise_project/surprise/stim/2_effect.mov 616 03-Apr-2018 17:00:13 4.846064e+02 -1.363315e+02 1 0
43fr21_f20 407 24 36 -45 -45 left 1 5.000000e-01 /Users/lab/Documents/surprise_project/surprise/stim/5_effect.mov 560 03-Apr-2018 17:00:30 1.560645e+02 1.065166e+02 1 1
43fr21_f20 407 25 65 45 45 right 1 5.000000e-01 /Users/lab/Documents/surprise_project/surprise/stim/9_effect.mov 565 03-Apr-2018 17:00:33 -3.563557e+02 3.101010e+02 1 0
43fr21_f20 407 26 36 -45 45 left 1 5.000000e-01 /Users/lab/Documents/surprise_project/surprise/stim/5_effect.mov 532 03-Apr-2018 17:00:36 3.267762e+02 -1.657705e+02 1 0
43fr21_f20 407 27 26 45 -45 right 1 5.000000e-01 /Users/lab/Documents/surprise_project/surprise/stim/4_effect.mov 446 03-Apr-2018 17:00:38 -2.374413e+01 4.867523e+01 1 0
43fr21_f20 407 28 43 -45 45 left 1 5.000000e-01 /Users/lab/Documents/surprise_project/surprise/stim/6_effect.mov 644 03-Apr-2018 17:00:54 -1.970359e+02 4.480620e+02 1 1
43fr21_f20 407 29 40 -45 -45 left 1 5.000000e-01 /Users/lab/Documents/surprise_project/surprise/stim/5_noeffect.mov 731 03-Apr-2018 17:00:57 -1.121336e+02 -4.410679e+02 0 0
43fr21_f20 407 30 63 -45 45 left 1 5.000000e-01 /Users/lab/Documents/surprise_project/surprise/stim/8_noeffect.mov 550 03-Apr-2018 17:01:00 2.119772e+02 -1.403201e+01 0 0
43fr21_f20 407 31 57 45 45 right 1 5.000000e-01 /Users/lab/Documents/surprise_project/surprise/stim/8_effect.mov 598 03-Apr-2018 17:01:03 -3.799142e+02 2.864183e+02 1 0
43fr21_f20 407 32 41 45 45 right 1 5.000000e-01 /Users/lab/Documents/surprise_project/surprise/stim/6_effect.mov 796 03-Apr-2018 17:01:18 1.251088e+02 -4.999451e+02 1 1
43fr21_f20 407 33 64 -45 -45 left 1 5.000000e-01 /Users/lab/Documents/surprise_project/surprise/stim/8_noeffect.mov 747 03-Apr-2018 17:01:21 -3.870533e+02 2.111113e+02 0 0
43fr21_f20 407 34 6 45 -45 right 1 5.000000e-01 /Users/lab/Documents/surprise_project/surprise/stim/1_noeffect.mov 580 03-Apr-2018 17:01:24 -2.451164e+02 6.212503e+01 1 0
43fr21_f20 407 35 60 -45 -45 left 1 5.000000e-01 /Users/lab/Documents/surprise_project/surprise/stim/8_effect.mov 714 03-Apr-2018 17:01:27 4.948319e+02 -3.602775e+02 1 0
43fr21_f20 407 36 58 45 -45 right 1 5.000000e-01 /Users/lab/Documents/surprise_project/surprise/stim/8_effect.mov 679 03-Apr-2018 17:01:48 8.412701e+00 1.349957e+02 1 1
43fr21_f20 407 37 69 45 45 right 1 5.000000e-01 /Users/lab/Documents/surprise_project/surprise/stim/9_noeffect.mov 829 03-Apr-2018 17:01:51 3.347521e+02 -4.570554e+02 0 0
43fr21_f20 407 38 44 -45 -45 left 1 5.000000e-01 /Users/lab/Documents/surprise_project/surprise/stim/6_effect.mov 600 03-Apr-2018 17:01:54 -4.274024e+02 2.577500e+02 1 0
43fr21_f20 407 39 5 45 45 right 1 5.000000e-01 /Users/lab/Documents/surprise_project/surprise/stim/1_noeffect.mov 513 03-Apr-2018 17:01:57 -3.336787e+02 -3.868286e+02 1 0
43fr21_f20 407 40 56 -45 -45 left 1 5.000000e-01 /Users/lab/Documents/surprise_project/surprise/stim/7_noeffect.mov 1072 03-Apr-2018 17:02:16 -4.853482e+02 -3.071485e+02 0 1
43fr21_f20 407 41 31 -45 45 left 1 5.000000e-01 /Users/lab/Documents/surprise_project/surprise/stim/4_noeffect.mov 682 03-Apr-2018 17:02:19 4.482938e+02 2.268117e+02 0 0
43fr21_f20 407 42 3 -45 45 left 1 5.000000e-01 /Users/lab/Documents/surprise_project/surprise/stim/1_effect.mov 697 03-Apr-2018 17:02:22 -1.034670e+02 -1.473806e+02 1 0
43fr21_f20 407 43 34 45 -45 right 1 5.000000e-01 /Users/lab/Documents/surprise_project/surprise/stim/5_effect.mov 632 03-Apr-2018 17:02:25 3.531770e+02 -2.930335e+02 1 0
43fr21_f20 407 44 33 45 45 right 1 5.000000e-01 /Users/lab/Documents/surprise_project/surprise/stim/5_effect.mov 711 03-Apr-2018 17:02:42 2.098952e+02 4.214199e+02 1 1
43fr21_f20 407 45 50 45 -45 right 1 5.000000e-01 /Users/lab/Documents/surprise_project/surprise/stim/7_effect.mov 547 03-Apr-2018 17:02:45 -1.207103e+02 -2.168886e+02 1 0
43fr21_f20 407 46 32 -45 -45 left 1 5.000000e-01 /Users/lab/Documents/surprise_project/surprise/stim/4_noeffect.mov 797 03-Apr-2018 17:02:48 -4.856328e+02 -4.616155e+02 0 0
43fr21_f20 407 47 51 -45 45 left 1 5.000000e-01 /Users/lab/Documents/surprise_project/surprise/stim/7_effect.mov 564 03-Apr-2018 17:02:51 4.432742e+02 -1.326451e+02 1 0
43fr21_f20 407 48 15 -45 45 left 1 5.000000e-01 /Users/lab/Documents/surprise_project/surprise/stim/2_noeffect.mov 797 03-Apr-2018 17:03:16 9.029025e+01 2.497018e+02 0 1
43fr21_f20 407 49 66 45 -45 right 1 5.000000e-01 /Users/lab/Documents/surprise_project/surprise/stim/9_effect.mov 597 03-Apr-2018 17:03:19 -3.133461e+01 -3.362365e+02 1 0
43fr21_f20 407 50 67 -45 45 left 1 5.000000e-01 /Users/lab/Documents/surprise_project/surprise/stim/9_effect.mov 529 03-Apr-2018 17:03:21 4.448517e+02 -4.643082e+02 1 0
43fr21_f20 407 51 52 -45 -45 left 1 5.000000e-01 /Users/lab/Documents/surprise_project/surprise/stim/7_effect.mov 581 03-Apr-2018 17:03:24 -6.355696e+01 -5.165036e+01 1 0
43fr21_f20 407 52 7 -45 45 left 1 5.000000e-01 /Users/lab/Documents/surprise_project/surprise/stim/1_noeffect.mov 579 03-Apr-2018 17:03:49 -2.591344e+02 1.528339e+02 1 1
43fr21_f20 407 53 29 45 45 right 1 5.000000e-01 /Users/lab/Documents/surprise_project/surprise/stim/4_noeffect.mov 798 03-Apr-2018 17:03:52 1.574982e+02 -2.649947e+02 0 0
43fr21_f20 407 54 8 -45 -45 left 1 5.000000e-01 /Users/lab/Documents/surprise_project/surprise/stim/1_noeffect.mov 490 03-Apr-2018 17:03:55 3.141035e+02 -2.663588e+02 1 0
43fr21_f20 407 55 14 45 -45 right 1 5.000000e-01 /Users/lab/Documents/surprise_project/surprise/stim/2_noeffect.mov 717 03-Apr-2018 17:03:58 2.322026e+02 3.721421e+02 0 0
43fr21_f20 407 56 20 -45 -45 left 1 5.000000e-01 /Users/lab/Documents/surprise_project/surprise/stim/3_effect.mov 694 03-Apr-2018 17:04:16 9.766965e+00 -1.073103e+02 1 1
43fr21_f20 407 57 46 45 -45 right 1 5.000000e-01 /Users/lab/Documents/surprise_project/surprise/stim/6_noeffect.mov 530 03-Apr-2018 17:04:19 -3.162610e+02 5.407281e+01 0 0
43fr21_f20 407 58 47 -45 45 left 1 5.000000e-01 /Users/lab/Documents/surprise_project/surprise/stim/6_noeffect.mov 472 03-Apr-2018 17:04:22 3.885487e+02 -1.347048e+01 0 0
43fr21_f20 407 59 25 45 45 right 1 5.000000e-01 /Users/lab/Documents/surprise_project/surprise/stim/4_effect.mov 981 03-Apr-2018 17:04:25 -2.180385e+02 -3.340818e+02 1 0
43fr21_f20 407 60 9 45 45 right 1 5.000000e-01 /Users/lab/Documents/surprise_project/surprise/stim/2_effect.mov 693 03-Apr-2018 17:04:51 4.371425e+02 -2.344859e+01 1 1
43fr21_f20 407 61 38 45 -45 right 1 5.000000e-01 /Users/lab/Documents/surprise_project/surprise/stim/5_noeffect.mov 531 03-Apr-2018 17:04:54 1.347732e+02 1.912666e+02 0 0
43fr21_f20 407 62 71 -45 45 left 1 5.000000e-01 /Users/lab/Documents/surprise_project/surprise/stim/9_noeffect.mov 814 03-Apr-2018 17:04:57 4.968808e+02 1.255053e+02 0 0
43fr21_f20 407 63 1 45 45 right 1 5.000000e-01 /Users/lab/Documents/surprise_project/surprise/stim/1_effect.mov 514 03-Apr-2018 17:05:00 -4.527490e+02 6.292142e+01 1 0
43fr21_f20 407 64 48 -45 -45 right 0 5.000000e-01 /Users/lab/Documents/surprise_project/surprise/stim/6_noeffect.mov 545 03-Apr-2018 17:05:14 -2.162878e+02 -3.879636e+02 0 1
43fr21_f20 407 65 13 45 45 right 1 5.000000e-01 /Users/lab/Documents/surprise_project/surprise/stim/2_noeffect.mov 596 03-Apr-2018 17:05:17 4.384355e+02 -4.942707e+02 0 0
43fr21_f20 407 66 30 45 -45 right 1 5.000000e-01 /Users/lab/Documents/surprise_project/surprise/stim/4_noeffect.mov 485 03-Apr-2018 17:05:20 9.420944e+01 2.540588e+02 0 0
43fr21_f20 407 67 61 45 45 right 1 5.000000e-01 /Users/lab/Documents/surprise_project/surprise/stim/8_noeffect.mov 485 03-Apr-2018 17:05:23 -6.217550e+00 -2.814256e+02 0 0
43fr21_f20 407 68 11 -45 45 left 1 5.000000e-01 /Users/lab/Documents/surprise_project/surprise/stim/2_effect.mov 627 03-Apr-2018 17:05:48 7.268093e+01 -3.460737e+02 1 1
43fr21_f20 407 69 39 -45 45 left 1 5.000000e-01 /Users/lab/Documents/surprise_project/surprise/stim/5_noeffect.mov 530 03-Apr-2018 17:05:51 -1.365102e+02 4.682112e+02 0 0
43fr21_f20 407 70 54 45 -45 right 1 5.000000e-01 /Users/lab/Documents/surprise_project/surprise/stim/7_noeffect.mov 614 03-Apr-2018 17:05:54 -4.770986e+02 1.842418e+02 0 0
43fr21_f20 407 71 21 45 45 right 1 5.000000e-01 /Users/lab/Documents/surprise_project/surprise/stim/3_noeffect.mov 798 03-Apr-2018 17:05:57 -1.822289e+02 -1.527438e+02 0 0
43fr21_f20 407 72 19 -45 45 left 1 5.000000e-01 /Users/lab/Documents/surprise_project/surprise/stim/3_effect.mov 581 03-Apr-2018 17:06:00 -5.433184e+01 -9.819667e+01 1 0
