subject_name subjectNumber block iTrial unshuffled_trial targetOrientation flankersOrientation response correct onscreen_stim_duration magicShows rt date time_of_day deltaX deltaY surpriseClip isClipTrial isSurprise
al_ma_ 2000_102_10_270_f 898 3 1 0 76 -45 -45 NORESP 0 3 /Users/lab/Documents/experiments/2019/surprise/stim/9_noeffect.mov 3000 14-May-2019 15:51:25 -9.167055e+01 -1.020312e+02 0 1
al_ma_ 2000_102_10_270_f 898 3 2 0 4 -45 -45 left 1 3 /Users/lab/Documents/experiments/2019/surprise/stim/1_noeffect.mov 2029 14-May-2019 15:51:30 3.265543e+01 -2.628797e+02 0 0
al_ma_ 2000_102_10_270_f 898 3 3 0 67 -45 45 left 1 3 /Users/lab/Documents/experiments/2019/surprise/stim/9_noeffect.mov 1243 14-May-2019 15:51:33 2.651551e+02 4.795176e+02 0 0
al_ma_ 2000_102_10_270_f 898 3 4 0 48 -45 -45 left 1 3 /Users/lab/Documents/experiments/2019/surprise/stim/6_noeffect.mov 2254 14-May-2019 15:51:50 8.326026e+01 -2.083124e+02 0 1
al_ma_ 2000_102_10_270_f 898 3 5 0 27 -45 45 left 1 3 /Users/lab/Documents/experiments/2019/surprise/stim/4_noeffect.mov 1880 14-May-2019 15:51:54 -9.717165e+01 -4.680178e+02 0 0
al_ma_ 2000_102_10_270_f 898 3 6 0 75 -45 45 left 1 3 /Users/lab/Documents/experiments/2019/surprise/stim/9_noeffect.mov 2034 14-May-2019 15:51:58 -3.994281e+02 4.180608e+02 0 0
al_ma_ 2000_102_10_270_f 898 3 7 0 58 45 -45 right 1 3 /Users/lab/Documents/experiments/2019/surprise/stim/8_noeffect.mov 1419 14-May-2019 15:52:02 -1.525834e+02 -1.794089e+02 0 0
al_ma_ 2000_102_10_270_f 898 3 8 0 59 -45 45 left 1 3 /Users/lab/Documents/experiments/2019/surprise/stim/8_noeffect.mov 1684 14-May-2019 15:52:24 2.944789e+02 -3.056462e+02 0 1
al_ma_ 2000_102_10_270_f 898 3 9 0 73 45 45 right 1 3 /Users/lab/Documents/experiments/2019/surprise/stim/9_noeffect.mov 746 14-May-2019 15:52:27 -1.424938e+00 -1.230318e+00 0 0
al_ma_ 2000_102_10_270_f 898 3 10 0 13 45 45 right 1 3 /Users/lab/Documents/experiments/2019/surprise/stim/2_noeffect.mov 726 14-May-2019 15:52:30 -3.086611e+02 -1.547479e+02 0 0
al_ma_ 2000_102_10_270_f 898 3 11 0 60 -45 -45 left 1 3 /Users/lab/Documents/experiments/2019/surprise/stim/8_noeffect.mov 723 14-May-2019 15:52:33 1.493067e+02 3.375503e+02 0 0
al_ma_ 2000_102_10_270_f 898 3 12 0 63 -45 45 left 1 3 /Users/lab/Documents/experiments/2019/surprise/stim/8_noeffect.mov 2103 14-May-2019 15:52:56 -3.904844e+02 4.611388e+02 0 1
al_ma_ 2000_102_10_270_f 898 3 13 0 2 45 -45 right 1 3 /Users/lab/Documents/experiments/2019/surprise/stim/1_noeffect.mov 724 14-May-2019 15:52:59 -3.025849e+02 3.105317e+02 0 0
al_ma_ 2000_102_10_270_f 898 3 14 0 28 -45 -45 left 1 3 /Users/lab/Documents/experiments/2019/surprise/stim/4_noeffect.mov 631 14-May-2019 15:53:02 -2.120621e+02 1.567805e+02 0 0
al_ma_ 2000_102_10_270_f 898 3 15 0 55 -45 45 left 1 3 /Users/lab/Documents/experiments/2019/surprise/stim/7_noeffect.mov 674 14-May-2019 15:53:05 1.782722e+02 1.513492e+02 0 0
al_ma_ 2000_102_10_270_f 898 3 16 0 40 -45 -45 left 1 3 /Users/lab/Documents/experiments/2019/surprise/stim/5_noeffect.mov 1325 14-May-2019 15:53:22 -3.885344e+02 -2.181416e+02 0 1
al_ma_ 2000_102_10_270_f 898 3 17 0 5 45 45 right 1 3 /Users/lab/Documents/experiments/2019/surprise/stim/1_noeffect.mov 706 14-May-2019 15:53:25 4.515044e+02 -4.715177e+02 0 0
al_ma_ 2000_102_10_270_f 898 3 18 0 78 45 -45 right 1 3 /Users/lab/Documents/experiments/2019/surprise/stim/9_noeffect.mov 713 14-May-2019 15:53:28 3.649309e+02 -3.855538e+02 0 0
al_ma_ 2000_102_10_270_f 898 3 19 0 3 -45 45 left 1 3 /Users/lab/Documents/experiments/2019/surprise/stim/1_noeffect.mov 664 14-May-2019 15:53:31 -2.767719e+02 4.798297e+02 0 0
al_ma_ 2000_102_10_270_f 898 3 20 0 80 -45 -45 left 1 3 /Users/lab/Documents/experiments/2019/surprise/stim/9_noeffect.mov 873 14-May-2019 15:53:53 2.173391e+01 -1.975233e+02 0 1
al_ma_ 2000_102_10_270_f 898 3 21 0 38 45 -45 right 1 3 /Users/lab/Documents/experiments/2019/surprise/stim/5_noeffect.mov 679 14-May-2019 15:53:56 -2.317119e+02 3.425134e+02 0 0
al_ma_ 2000_102_10_270_f 898 3 22 0 18 45 -45 right 1 3 /Users/lab/Documents/experiments/2019/surprise/stim/2_noeffect.mov 750 14-May-2019 15:53:59 2.824242e+02 -3.867939e+02 0 0
al_ma_ 2000_102_10_270_f 898 3 23 0 11 -45 45 left 1 3 /Users/lab/Documents/experiments/2019/surprise/stim/2_noeffect.mov 919 14-May-2019 15:54:02 3.727418e+02 1.070486e+02 0 0
al_ma_ 2000_102_10_270_f 898 3 24 0 46 45 -45 right 1 3 /Users/lab/Documents/experiments/2019/surprise/stim/6_noeffect.mov 1026 14-May-2019 15:54:17 -9.098170e+01 -1.631759e+02 0 1
al_ma_ 2000_102_10_270_f 898 3 25 0 53 45 45 right 1 3 /Users/lab/Documents/experiments/2019/surprise/stim/7_noeffect.mov 902 14-May-2019 15:54:21 -3.416016e+02 1.255234e+02 0 0
al_ma_ 2000_102_10_270_f 898 3 26 0 71 -45 45 left 1 3 /Users/lab/Documents/experiments/2019/surprise/stim/9_noeffect.mov 654 14-May-2019 15:54:24 -2.051935e+02 -2.949044e+02 0 0
al_ma_ 2000_102_10_270_f 898 3 27 0 19 -45 45 left 1 3 /Users/lab/Documents/experiments/2019/surprise/stim/2_noeffect.mov 673 14-May-2019 15:54:27 2.498834e+02 -3.720153e+02 0 0
al_ma_ 2000_102_10_270_f 898 3 28 0 9 45 45 right 1 3 /Users/lab/Documents/experiments/2019/surprise/stim/2_noeffect.mov 1144 14-May-2019 15:54:52 -4.321488e+02 -2.779198e+02 0 1
al_ma_ 2000_102_10_270_f 898 3 29 0 49 45 45 right 1 3 /Users/lab/Documents/experiments/2019/surprise/stim/7_noeffect.mov 821 14-May-2019 15:54:55 -3.816385e+02 4.731241e+02 0 0
al_ma_ 2000_102_10_270_f 898 3 30 0 35 -45 45 left 1 3 /Users/lab/Documents/experiments/2019/surprise/stim/5_noeffect.mov 663 14-May-2019 15:54:58 1.797353e+02 4.738366e+02 0 0
al_ma_ 2000_102_10_270_f 898 3 31 0 23 -45 45 left 1 3 /Users/lab/Documents/experiments/2019/surprise/stim/3_noeffect.mov 742 14-May-2019 15:55:01 -2.815508e+02 -4.957881e+02 0 0
al_ma_ 2000_102_10_270_f 898 3 32 0 52 -45 -45 left 1 3 /Users/lab/Documents/experiments/2019/surprise/stim/7_noeffect.mov 946 14-May-2019 15:55:21 -3.594925e+02 2.586052e+02 0 1
al_ma_ 2000_102_10_270_f 898 3 33 0 43 -45 45 left 1 3 /Users/lab/Documents/experiments/2019/surprise/stim/6_noeffect.mov 1163 14-May-2019 15:55:24 3.632763e+02 -2.246552e+02 0 0
al_ma_ 2000_102_10_270_f 898 3 34 0 15 -45 45 left 1 3 /Users/lab/Documents/experiments/2019/surprise/stim/2_noeffect.mov 1704 14-May-2019 15:55:28 3.265845e+02 4.924385e+02 0 0
al_ma_ 2000_102_10_270_f 898 3 35 0 45 45 45 right 1 3 /Users/lab/Documents/experiments/2019/surprise/stim/6_noeffect.mov 850 14-May-2019 15:55:31 -3.454193e+01 1.846934e+02 0 0
al_ma_ 2000_102_10_270_f 898 3 36 0 31 -45 45 left 1 3 /Users/lab/Documents/experiments/2019/surprise/stim/4_noeffect.mov 2873 14-May-2019 15:55:51 2.925785e+02 4.344136e+02 0 1
al_ma_ 2000_102_10_270_f 898 3 37 0 12 -45 -45 left 1 3 /Users/lab/Documents/experiments/2019/surprise/stim/2_noeffect.mov 942 14-May-2019 15:55:54 -1.189879e+02 1.460456e+02 0 0
al_ma_ 2000_102_10_270_f 898 3 38 0 22 45 -45 right 1 3 /Users/lab/Documents/experiments/2019/surprise/stim/3_noeffect.mov 612 14-May-2019 15:55:57 1.956127e+02 3.224340e+02 0 0
al_ma_ 2000_102_10_270_f 898 3 39 0 36 -45 -45 left 1 3 /Users/lab/Documents/experiments/2019/surprise/stim/5_noeffect.mov 1056 14-May-2019 15:56:00 -4.316732e+02 -4.662584e+02 0 0
al_ma_ 2000_102_10_270_f 898 3 40 0 70 45 -45 right 1 3 /Users/lab/Documents/experiments/2019/surprise/stim/9_noeffect.mov 1010 14-May-2019 15:56:22 1.282718e+02 -2.084021e+02 0 1
al_ma_ 2000_102_10_270_f 898 3 41 0 74 45 -45 right 1 3 /Users/lab/Documents/experiments/2019/surprise/stim/9_noeffect.mov 655 14-May-2019 15:56:25 -3.740990e+02 4.369967e+02 0 0
al_ma_ 2000_102_10_270_f 898 3 42 0 37 45 45 right 1 3 /Users/lab/Documents/experiments/2019/surprise/stim/5_noeffect.mov 660 14-May-2019 15:56:29 4.957890e+02 3.930536e+02 0 0
al_ma_ 2000_102_10_270_f 898 3 43 0 51 -45 45 left 1 3 /Users/lab/Documents/experiments/2019/surprise/stim/7_noeffect.mov 633 14-May-2019 15:56:32 4.949180e+02 1.701989e+02 0 0
al_ma_ 2000_102_10_270_f 898 3 44 0 32 -45 -45 left 1 3 /Users/lab/Documents/experiments/2019/surprise/stim/4_noeffect.mov 1012 14-May-2019 15:56:49 -2.721883e+02 2.196999e+02 0 1
al_ma_ 2000_102_10_270_f 898 3 45 0 57 45 45 right 1 3 /Users/lab/Documents/experiments/2019/surprise/stim/8_noeffect.mov 1577 14-May-2019 15:56:53 -4.043515e+02 2.587539e+02 0 0
al_ma_ 2000_102_10_270_f 898 3 46 0 64 -45 -45 left 1 3 /Users/lab/Documents/experiments/2019/surprise/stim/8_noeffect.mov 650 14-May-2019 15:56:56 5.579589e+01 4.865938e+02 0 0
al_ma_ 2000_102_10_270_f 898 3 47 0 1 45 45 right 1 3 /Users/lab/Documents/experiments/2019/surprise/stim/1_noeffect.mov 744 14-May-2019 15:56:59 4.801145e+02 -4.512199e+02 0 0
al_ma_ 2000_102_10_270_f 898 3 48 0 24 -45 -45 left 1 3 /Users/lab/Documents/experiments/2019/surprise/stim/3_noeffect.mov 1265 14-May-2019 15:57:18 3.970351e+02 -6.535828e+01 0 1
al_ma_ 2000_102_10_270_f 898 3 49 0 29 45 45 right 1 3 /Users/lab/Documents/experiments/2019/surprise/stim/4_noeffect.mov 1041 14-May-2019 15:57:21 1.901019e+02 -4.659073e+02 0 0
al_ma_ 2000_102_10_270_f 898 3 50 0 17 45 45 right 1 3 /Users/lab/Documents/experiments/2019/surprise/stim/2_noeffect.mov 1295 14-May-2019 15:57:25 -2.609400e+02 -3.674971e+02 0 0
al_ma_ 2000_102_10_270_f 898 3 51 0 47 -45 45 left 1 3 /Users/lab/Documents/experiments/2019/surprise/stim/6_noeffect.mov 758 14-May-2019 15:57:28 -1.088472e+02 -4.185101e+02 0 0
al_ma_ 2000_102_10_270_f 898 3 52 0 26 45 -45 right 1 3 /Users/lab/Documents/experiments/2019/surprise/stim/4_noeffect.mov 874 14-May-2019 15:57:45 2.567394e+02 -1.847279e+02 0 1
al_ma_ 2000_102_10_270_f 898 3 53 0 25 45 45 right 1 3 /Users/lab/Documents/experiments/2019/surprise/stim/4_noeffect.mov 655 14-May-2019 15:57:48 3.593895e+02 4.889724e+02 0 0
al_ma_ 2000_102_10_270_f 898 3 54 0 10 45 -45 right 1 3 /Users/lab/Documents/experiments/2019/surprise/stim/2_noeffect.mov 694 14-May-2019 15:57:51 -1.452414e+02 -3.139722e+02 0 0
al_ma_ 2000_102_10_270_f 898 3 55 0 7 -45 45 left 1 3 /Users/lab/Documents/experiments/2019/surprise/stim/1_noeffect.mov 714 14-May-2019 15:57:55 -3.374895e+02 -1.487515e+02 0 0
al_ma_ 2000_102_10_270_f 898 3 56 0 14 45 -45 right 1 3 /Users/lab/Documents/experiments/2019/surprise/stim/2_noeffect.mov 931 14-May-2019 15:58:19 -7.638677e+01 -2.107501e+02 0 1
al_ma_ 2000_102_10_270_f 898 3 57 0 6 45 -45 right 1 3 /Users/lab/Documents/experiments/2019/surprise/stim/1_noeffect.mov 636 14-May-2019 15:58:22 1.640133e+02 3.739806e+02 0 0
al_ma_ 2000_102_10_270_f 898 3 58 0 30 45 -45 right 1 3 /Users/lab/Documents/experiments/2019/surprise/stim/4_noeffect.mov 616 14-May-2019 15:58:25 -3.236871e+02 -1.362488e+01 0 0
al_ma_ 2000_102_10_270_f 898 3 59 0 56 -45 -45 left 1 3 /Users/lab/Documents/experiments/2019/surprise/stim/7_noeffect.mov 622 14-May-2019 15:58:28 4.503022e+02 -4.707891e+02 0 0
al_ma_ 2000_102_10_270_f 898 3 60 0 61 45 45 right 1 3 /Users/lab/Documents/experiments/2019/surprise/stim/8_noeffect.mov 982 14-May-2019 15:58:50 3.388824e+02 -2.272641e+02 0 1
al_ma_ 2000_102_10_270_f 898 3 61 0 77 45 45 left 0 3 /Users/lab/Documents/experiments/2019/surprise/stim/9_noeffect.mov 830 14-May-2019 15:58:53 -2.947291e+02 3.208567e+01 0 0
al_ma_ 2000_102_10_270_f 898 3 62 0 44 -45 -45 left 1 3 /Users/lab/Documents/experiments/2019/surprise/stim/6_noeffect.mov 1566 14-May-2019 15:58:57 7.790829e+01 2.181966e+02 0 0
al_ma_ 2000_102_10_270_f 898 3 63 0 50 45 -45 right 1 3 /Users/lab/Documents/experiments/2019/surprise/stim/7_noeffect.mov 952 14-May-2019 15:59:00 4.750015e+02 1.113629e+02 0 0
al_ma_ 2000_102_10_270_f 898 3 64 0 42 45 -45 right 1 3 /Users/lab/Documents/experiments/2019/surprise/stim/6_noeffect.mov 1836 14-May-2019 15:59:16 3.981219e+02 3.656266e+02 0 1
al_ma_ 2000_102_10_270_f 898 3 65 0 41 45 45 right 1 3 /Users/lab/Documents/experiments/2019/surprise/stim/6_noeffect.mov 861 14-May-2019 15:59:19 3.760475e+02 -2.203225e+02 0 0
al_ma_ 2000_102_10_270_f 898 3 66 0 34 45 -45 right 1 3 /Users/lab/Documents/experiments/2019/surprise/stim/5_noeffect.mov 633 14-May-2019 15:59:22 -2.527324e+02 3.323614e+02 0 0
al_ma_ 2000_102_10_270_f 898 3 67 0 39 -45 45 left 1 3 /Users/lab/Documents/experiments/2019/surprise/stim/5_noeffect.mov 588 14-May-2019 15:59:25 7.226931e+01 4.153055e+02 0 0
al_ma_ 2000_102_10_270_f 898 3 68 0 66 45 -45 right 1 3 /Users/lab/Documents/experiments/2019/surprise/stim/9_noeffect.mov 1022 14-May-2019 15:59:47 4.230796e+02 -7.498643e+01 0 1
al_ma_ 2000_102_10_270_f 898 3 69 0 33 45 45 right 1 3 /Users/lab/Documents/experiments/2019/surprise/stim/5_noeffect.mov 649 14-May-2019 15:59:50 -4.727835e+02 -1.952876e+02 0 0
al_ma_ 2000_102_10_270_f 898 3 70 0 8 -45 -45 left 1 3 /Users/lab/Documents/experiments/2019/surprise/stim/1_noeffect.mov 528 14-May-2019 15:59:53 2.057088e+02 -1.251029e+01 0 0
al_ma_ 2000_102_10_270_f 898 3 71 0 21 45 45 right 1 3 /Users/lab/Documents/experiments/2019/surprise/stim/3_noeffect.mov 583 14-May-2019 15:59:56 4.255113e+02 -3.708956e+02 0 0
al_ma_ 2000_102_10_270_f 898 3 72 0 79 -45 45 left 1 3 /Users/lab/Documents/experiments/2019/surprise/stim/9_noeffect.mov 1161 14-May-2019 16:00:18 3.624950e+02 4.960083e+02 0 1
al_ma_ 2000_102_10_270_f 898 3 73 0 20 -45 -45 left 1 3 /Users/lab/Documents/experiments/2019/surprise/stim/2_noeffect.mov 584 14-May-2019 16:00:21 3.492399e+01 1.283121e+02 0 0
al_ma_ 2000_102_10_270_f 898 3 74 0 54 45 -45 right 1 3 /Users/lab/Documents/experiments/2019/surprise/stim/7_noeffect.mov 682 14-May-2019 16:00:24 -4.013880e+00 -3.429274e+02 0 0
al_ma_ 2000_102_10_270_f 898 3 75 0 16 -45 -45 left 1 3 /Users/lab/Documents/experiments/2019/surprise/stim/2_noeffect.mov 1322 14-May-2019 16:00:28 -3.215192e+02 -1.547597e+02 0 0
al_ma_ 2000_102_10_270_f 898 3 76 0 65 45 45 right 1 3 /Users/lab/Documents/experiments/2019/surprise/stim/9_noeffect.mov 902 14-May-2019 16:00:50 -4.614709e+02 1.906041e+02 0 1
al_ma_ 2000_102_10_270_f 898 3 77 0 72 -45 -45 left 1 3 /Users/lab/Documents/experiments/2019/surprise/stim/9_noeffect.mov 876 14-May-2019 16:00:53 -3.559724e+02 -3.539470e+02 0 0
al_ma_ 2000_102_10_270_f 898 3 78 0 62 45 -45 right 1 3 /Users/lab/Documents/experiments/2019/surprise/stim/8_noeffect.mov 575 14-May-2019 16:00:56 8.016650e+01 8.583671e+01 0 0
al_ma_ 2000_102_10_270_f 898 3 79 0 68 -45 -45 left 1 3 /Users/lab/Documents/experiments/2019/surprise/stim/9_noeffect.mov 595 14-May-2019 16:00:59 -1.489938e+02 3.788730e+02 0 0
al_ma_ 2000_102_10_270_f 898 3 80 0 69 45 45 right 1 3 /Users/lab/Documents/experiments/2019/surprise/stim/9_noeffect.mov 509 14-May-2019 16:01:02 2.266723e+02 -4.406911e+01 0 0
