subject_name subjectNumber block iTrial unshuffled_trial targetOrientation flankersOrientation response correct onscreen_stim_duration magicShows rt date time_of_day deltaX deltaY surpriseClip isClipTrial isSurprise
gi_re_1997_03_22_193_f 759 3 1 1 18 45 -45 right 1 3 /Users/lab/Documents/experiments/2019/surprise/stim/3_effect.mov 2784 15-Apr-2019 16:46:11 2.804211e+02 2.670907e+02 1 1
gi_re_1997_03_22_193_f 759 3 2 1 68 -45 -45 left 1 3 /Users/lab/Documents/experiments/2019/surprise/stim/9_effect.mov 1245 15-Apr-2019 16:46:14 -1.640144e+01 2.292519e+02 1 0
gi_re_1997_03_22_193_f 759 3 3 1 8 -45 -45 left 1 3 /Users/lab/Documents/experiments/2019/surprise/stim/1_noeffect.mov 1848 15-Apr-2019 16:46:19 3.940829e+02 3.060921e+02 1 0
gi_re_1997_03_22_193_f 759 3 4 1 64 -45 -45 left 1 3 /Users/lab/Documents/experiments/2019/surprise/stim/8_noeffect.mov 1188 15-Apr-2019 16:46:40 -1.354227e+02 -4.715065e+02 0 1
gi_re_1997_03_22_193_f 759 3 5 1 51 -45 45 left 1 3 /Users/lab/Documents/experiments/2019/surprise/stim/7_effect.mov 1456 15-Apr-2019 16:46:44 -1.548809e+02 -4.860913e+02 1 0
gi_re_1997_03_22_193_f 759 3 6 1 32 -45 -45 left 1 3 /Users/lab/Documents/experiments/2019/surprise/stim/4_noeffect.mov 1122 15-Apr-2019 16:46:47 -4.826775e+02 2.626232e+02 0 0
gi_re_1997_03_22_193_f 759 3 7 1 22 45 -45 right 1 3 /Users/lab/Documents/experiments/2019/surprise/stim/3_noeffect.mov 1292 15-Apr-2019 16:46:51 9.304812e+00 -4.540621e+02 0 0
gi_re_1997_03_22_193_f 759 3 8 1 57 45 45 right 1 3 /Users/lab/Documents/experiments/2019/surprise/stim/8_effect.mov 1065 15-Apr-2019 16:47:12 2.492947e+00 3.296570e+02 1 1
gi_re_1997_03_22_193_f 759 3 9 1 65 45 45 right 1 3 /Users/lab/Documents/experiments/2019/surprise/stim/9_effect.mov 896 15-Apr-2019 16:47:15 -2.004348e+02 -4.041993e+02 1 0
gi_re_1997_03_22_193_f 759 3 10 1 19 -45 45 left 1 3 /Users/lab/Documents/experiments/2019/surprise/stim/3_effect.mov 802 15-Apr-2019 16:47:19 -2.226351e+02 4.867972e+02 1 0
gi_re_1997_03_22_193_f 759 3 11 1 61 45 45 right 1 3 /Users/lab/Documents/experiments/2019/surprise/stim/8_noeffect.mov 738 15-Apr-2019 16:47:22 4.455788e+02 -4.808372e+02 0 0
gi_re_1997_03_22_193_f 759 3 12 1 21 45 45 right 1 3 /Users/lab/Documents/experiments/2019/surprise/stim/3_noeffect.mov 1084 15-Apr-2019 16:47:40 -4.916313e+02 4.646690e+02 0 1
gi_re_1997_03_22_193_f 759 3 13 1 46 45 -45 right 1 3 /Users/lab/Documents/experiments/2019/surprise/stim/6_noeffect.mov 634 15-Apr-2019 16:47:43 2.837322e+00 -1.949563e+02 0 0
gi_re_1997_03_22_193_f 759 3 14 1 42 45 -45 right 1 3 /Users/lab/Documents/experiments/2019/surprise/stim/6_effect.mov 1009 15-Apr-2019 16:47:47 4.172224e+02 3.185568e+02 1 0
gi_re_1997_03_22_193_f 759 3 15 1 62 45 -45 right 1 3 /Users/lab/Documents/experiments/2019/surprise/stim/8_noeffect.mov 746 15-Apr-2019 16:47:50 4.688941e+01 4.072002e+02 0 0
gi_re_1997_03_22_193_f 759 3 16 1 9 45 45 right 1 3 /Users/lab/Documents/experiments/2019/surprise/stim/2_effect.mov 1114 15-Apr-2019 16:48:15 2.395288e+02 -9.803071e+01 1 1
gi_re_1997_03_22_193_f 759 3 17 1 70 45 -45 right 1 3 /Users/lab/Documents/experiments/2019/surprise/stim/9_noeffect.mov 684 15-Apr-2019 16:48:18 1.146671e+02 2.486155e+02 0 0
gi_re_1997_03_22_193_f 759 3 18 1 48 -45 -45 left 1 3 /Users/lab/Documents/experiments/2019/surprise/stim/6_noeffect.mov 630 15-Apr-2019 16:48:21 9.277969e+01 4.566474e+02 0 0
gi_re_1997_03_22_193_f 759 3 19 1 34 45 -45 right 1 3 /Users/lab/Documents/experiments/2019/surprise/stim/5_effect.mov 784 15-Apr-2019 16:48:25 2.955313e+02 -3.180528e+01 1 0
gi_re_1997_03_22_193_f 759 3 20 1 40 -45 -45 left 1 3 /Users/lab/Documents/experiments/2019/surprise/stim/5_noeffect.mov 1095 15-Apr-2019 16:48:42 -4.072985e+02 3.458925e+02 0 1
gi_re_1997_03_22_193_f 759 3 21 1 2 45 -45 right 1 3 /Users/lab/Documents/experiments/2019/surprise/stim/1_effect.mov 630 15-Apr-2019 16:48:45 1.190579e+02 2.840397e+02 1 0
gi_re_1997_03_22_193_f 759 3 22 1 29 45 45 right 1 3 /Users/lab/Documents/experiments/2019/surprise/stim/4_noeffect.mov 796 15-Apr-2019 16:48:48 -3.520235e+02 -4.039807e+02 0 0
gi_re_1997_03_22_193_f 759 3 23 1 55 -45 45 right 0 3 /Users/lab/Documents/experiments/2019/surprise/stim/7_noeffect.mov 1229 15-Apr-2019 16:48:51 1.793270e+02 -2.766401e+02 0 0
gi_re_1997_03_22_193_f 759 3 24 1 31 -45 45 left 1 3 /Users/lab/Documents/experiments/2019/surprise/stim/4_noeffect.mov 1259 15-Apr-2019 16:49:09 -4.888290e+02 3.040975e+02 0 1
gi_re_1997_03_22_193_f 759 3 25 1 10 45 -45 right 1 3 /Users/lab/Documents/experiments/2019/surprise/stim/2_effect.mov 1250 15-Apr-2019 16:49:12 2.418429e+02 -1.227580e+02 1 0
gi_re_1997_03_22_193_f 759 3 26 1 16 -45 -45 left 1 3 /Users/lab/Documents/experiments/2019/surprise/stim/2_noeffect.mov 1014 15-Apr-2019 16:49:16 -3.334534e+02 4.665261e+02 0 0
gi_re_1997_03_22_193_f 759 3 27 1 13 45 45 right 1 3 /Users/lab/Documents/experiments/2019/surprise/stim/2_noeffect.mov 821 15-Apr-2019 16:49:19 -3.197422e+01 4.882003e+02 0 0
gi_re_1997_03_22_193_f 759 3 28 1 14 45 -45 right 1 3 /Users/lab/Documents/experiments/2019/surprise/stim/2_noeffect.mov 858 15-Apr-2019 16:49:44 7.896218e+01 -6.288725e+01 0 1
gi_re_1997_03_22_193_f 759 3 29 1 36 -45 -45 left 1 3 /Users/lab/Documents/experiments/2019/surprise/stim/5_effect.mov 1238 15-Apr-2019 16:49:47 -3.311745e+02 -1.670222e+02 1 0
gi_re_1997_03_22_193_f 759 3 30 1 37 45 45 right 1 3 /Users/lab/Documents/experiments/2019/surprise/stim/5_noeffect.mov 609 15-Apr-2019 16:49:50 1.162414e+02 3.994194e+02 0 0
gi_re_1997_03_22_193_f 759 3 31 1 17 45 45 right 1 3 /Users/lab/Documents/experiments/2019/surprise/stim/3_effect.mov 1228 15-Apr-2019 16:49:54 -3.709774e+02 -3.983820e+01 1 0
gi_re_1997_03_22_193_f 759 3 32 1 54 45 -45 right 1 3 /Users/lab/Documents/experiments/2019/surprise/stim/7_noeffect.mov 797 15-Apr-2019 16:50:13 4.765113e+02 -3.388724e+02 0 1
gi_re_1997_03_22_193_f 759 3 33 1 49 45 45 right 1 3 /Users/lab/Documents/experiments/2019/surprise/stim/7_effect.mov 939 15-Apr-2019 16:50:16 -4.720536e+02 3.663331e+01 1 0
gi_re_1997_03_22_193_f 759 3 34 1 23 -45 45 left 1 3 /Users/lab/Documents/experiments/2019/surprise/stim/3_noeffect.mov 861 15-Apr-2019 16:50:19 7.329857e+01 2.625576e+02 0 0
gi_re_1997_03_22_193_f 759 3 35 1 3 -45 45 left 1 3 /Users/lab/Documents/experiments/2019/surprise/stim/1_effect.mov 2501 15-Apr-2019 16:50:24 -6.188661e+00 -2.684108e+02 1 0
gi_re_1997_03_22_193_f 759 3 36 1 15 -45 45 left 1 3 /Users/lab/Documents/experiments/2019/surprise/stim/2_noeffect.mov 1293 15-Apr-2019 16:50:49 -1.444208e+02 -3.075454e+02 0 1
gi_re_1997_03_22_193_f 759 3 37 1 36 -45 45 left 1 3 /Users/lab/Documents/experiments/2019/surprise/stim/5_effect.mov 863 15-Apr-2019 16:50:53 -4.857940e+02 -1.184581e+02 1 0
gi_re_1997_03_22_193_f 759 3 38 1 43 -45 45 left 1 3 /Users/lab/Documents/experiments/2019/surprise/stim/6_effect.mov 839 15-Apr-2019 16:50:56 1.818980e+01 -1.014534e+02 1 0
gi_re_1997_03_22_193_f 759 3 39 1 50 45 -45 right 1 3 /Users/lab/Documents/experiments/2019/surprise/stim/7_effect.mov 766 15-Apr-2019 16:50:59 2.128379e+02 6.212592e+01 1 0
gi_re_1997_03_22_193_f 759 3 40 1 71 -45 45 left 1 3 /Users/lab/Documents/experiments/2019/surprise/stim/9_noeffect.mov 1728 15-Apr-2019 16:51:22 -4.921582e+02 -3.451712e+02 0 1
gi_re_1997_03_22_193_f 759 3 41 1 12 -45 -45 left 1 3 /Users/lab/Documents/experiments/2019/surprise/stim/2_effect.mov 1356 15-Apr-2019 16:51:25 -1.788645e+02 2.152288e+02 1 0
gi_re_1997_03_22_193_f 759 3 42 1 52 -45 -45 left 1 3 /Users/lab/Documents/experiments/2019/surprise/stim/7_effect.mov 766 15-Apr-2019 16:51:29 -3.272121e+02 5.903185e+01 1 0
gi_re_1997_03_22_193_f 759 3 43 1 25 45 45 right 1 3 /Users/lab/Documents/experiments/2019/surprise/stim/4_effect.mov 749 15-Apr-2019 16:51:32 5.755867e+01 3.178816e+02 1 0
gi_re_1997_03_22_193_f 759 3 44 1 58 45 -45 right 1 3 /Users/lab/Documents/experiments/2019/surprise/stim/8_effect.mov 1358 15-Apr-2019 16:51:53 3.114920e+02 -1.169995e-01 1 1
gi_re_1997_03_22_193_f 759 3 45 1 24 -45 -45 left 1 3 /Users/lab/Documents/experiments/2019/surprise/stim/3_noeffect.mov 1353 15-Apr-2019 16:51:57 -1.465435e+02 1.959176e+02 0 0
gi_re_1997_03_22_193_f 759 3 46 1 66 45 -45 right 1 3 /Users/lab/Documents/experiments/2019/surprise/stim/9_effect.mov 685 15-Apr-2019 16:52:00 4.461680e+02 -3.144257e+02 1 0
gi_re_1997_03_22_193_f 759 3 47 1 7 -45 45 left 1 3 /Users/lab/Documents/experiments/2019/surprise/stim/1_noeffect.mov 945 15-Apr-2019 16:52:03 4.910380e+02 1.290709e+02 1 0
gi_re_1997_03_22_193_f 759 3 48 1 47 -45 45 left 1 3 /Users/lab/Documents/experiments/2019/surprise/stim/6_noeffect.mov 1019 15-Apr-2019 16:52:18 8.911572e+01 3.867248e+02 0 1
gi_re_1997_03_22_193_f 759 3 49 1 41 45 45 right 1 3 /Users/lab/Documents/experiments/2019/surprise/stim/6_effect.mov 1835 15-Apr-2019 16:52:23 -3.456674e+01 -1.941148e+02 1 0
gi_re_1997_03_22_193_f 759 3 50 1 11 -45 45 left 1 3 /Users/lab/Documents/experiments/2019/surprise/stim/2_effect.mov 888 15-Apr-2019 16:52:26 4.600479e+02 -9.388410e+01 1 0
gi_re_1997_03_22_193_f 759 3 51 1 59 -45 45 left 1 3 /Users/lab/Documents/experiments/2019/surprise/stim/8_effect.mov 849 15-Apr-2019 16:52:29 6.286887e+00 -3.723197e+02 1 0
gi_re_1997_03_22_193_f 759 3 52 1 44 -45 -45 left 1 3 /Users/lab/Documents/experiments/2019/surprise/stim/6_effect.mov 1491 15-Apr-2019 16:52:45 -8.357931e+01 3.543732e+02 1 1
gi_re_1997_03_22_193_f 759 3 53 1 27 -45 45 left 1 3 /Users/lab/Documents/experiments/2019/surprise/stim/4_effect.mov 760 15-Apr-2019 16:52:48 -3.400184e+02 2.853443e+02 1 0
gi_re_1997_03_22_193_f 759 3 54 1 20 -45 -45 left 1 3 /Users/lab/Documents/experiments/2019/surprise/stim/3_effect.mov 973 15-Apr-2019 16:52:51 -1.712164e+02 -2.985217e+02 1 0
gi_re_1997_03_22_193_f 759 3 55 1 6 45 -45 right 1 3 /Users/lab/Documents/experiments/2019/surprise/stim/1_noeffect.mov 871 15-Apr-2019 16:52:55 2.911631e+02 -4.279616e+02 1 0
gi_re_1997_03_22_193_f 759 3 56 1 26 45 -45 right 1 3 /Users/lab/Documents/experiments/2019/surprise/stim/4_effect.mov 1238 15-Apr-2019 16:53:12 1.153750e+02 2.480033e+02 1 1
gi_re_1997_03_22_193_f 759 3 57 1 72 -45 -45 left 1 3 /Users/lab/Documents/experiments/2019/surprise/stim/9_noeffect.mov 759 15-Apr-2019 16:53:15 -2.763102e+02 -2.715823e+01 0 0
gi_re_1997_03_22_193_f 759 3 58 1 45 45 45 right 1 3 /Users/lab/Documents/experiments/2019/surprise/stim/6_noeffect.mov 636 15-Apr-2019 16:53:18 1.385479e+02 -3.627203e+02 0 0
gi_re_1997_03_22_193_f 759 3 59 1 60 -45 -45 left 1 3 /Users/lab/Documents/experiments/2019/surprise/stim/8_effect.mov 716 15-Apr-2019 16:53:21 -3.639364e+02 1.326298e+02 1 0
gi_re_1997_03_22_193_f 759 3 60 1 56 -45 -45 left 1 3 /Users/lab/Documents/experiments/2019/surprise/stim/7_noeffect.mov 1524 15-Apr-2019 16:53:41 -2.522433e+02 -1.890732e+02 0 1
gi_re_1997_03_22_193_f 759 3 61 1 53 45 45 right 1 3 /Users/lab/Documents/experiments/2019/surprise/stim/7_noeffect.mov 877 15-Apr-2019 16:53:44 -3.541214e+02 2.581220e+02 0 0
gi_re_1997_03_22_193_f 759 3 62 1 33 45 45 right 1 3 /Users/lab/Documents/experiments/2019/surprise/stim/5_effect.mov 1062 15-Apr-2019 16:53:48 -4.865149e+02 -4.310810e+01 1 0
gi_re_1997_03_22_193_f 759 3 63 1 5 45 45 right 1 3 /Users/lab/Documents/experiments/2019/surprise/stim/1_noeffect.mov 707 15-Apr-2019 16:53:51 9.335802e+01 4.272430e+02 1 0
gi_re_1997_03_22_193_f 759 3 64 1 4 -45 -45 left 1 3 /Users/lab/Documents/experiments/2019/surprise/stim/1_effect.mov 1466 15-Apr-2019 16:54:17 4.999301e+02 -3.156761e+02 1 1
gi_re_1997_03_22_193_f 759 3 65 1 69 45 45 right 1 3 /Users/lab/Documents/experiments/2019/surprise/stim/9_noeffect.mov 834 15-Apr-2019 16:54:20 -4.646819e+02 4.832072e+02 0 0
gi_re_1997_03_22_193_f 759 3 66 1 39 -45 45 left 1 3 /Users/lab/Documents/experiments/2019/surprise/stim/5_noeffect.mov 910 15-Apr-2019 16:54:23 2.982436e+02 -1.178428e+02 0 0
gi_re_1997_03_22_193_f 759 3 67 1 28 -45 -45 left 1 3 /Users/lab/Documents/experiments/2019/surprise/stim/4_effect.mov 1072 15-Apr-2019 16:54:26 -1.774714e+02 -3.335964e+02 1 0
gi_re_1997_03_22_193_f 759 3 68 1 1 45 45 right 1 3 /Users/lab/Documents/experiments/2019/surprise/stim/1_effect.mov 830 15-Apr-2019 16:54:52 4.597866e+02 -1.717855e+02 1 1
gi_re_1997_03_22_193_f 759 3 69 1 67 -45 45 left 1 3 /Users/lab/Documents/experiments/2019/surprise/stim/9_effect.mov 956 15-Apr-2019 16:54:55 2.171222e+02 -3.255175e+02 1 0
gi_re_1997_03_22_193_f 759 3 70 1 38 45 -45 right 1 3 /Users/lab/Documents/experiments/2019/surprise/stim/5_noeffect.mov 889 15-Apr-2019 16:54:58 1.613789e+02 -4.889221e+02 0 0
gi_re_1997_03_22_193_f 759 3 71 1 63 -45 45 left 1 3 /Users/lab/Documents/experiments/2019/surprise/stim/8_noeffect.mov 782 15-Apr-2019 16:55:01 1.736049e+02 3.189598e+02 0 0
gi_re_1997_03_22_193_f 759 3 72 1 30 45 -45 right 1 3 /Users/lab/Documents/experiments/2019/surprise/stim/4_noeffect.mov 561 15-Apr-2019 16:55:04 -1.356025e+02 -4.331102e+02 0 0
