subject_name subjectNumber block iTrial unshuffled_trial targetOrientation flankersOrientation response correct onscreen_stim_duration magicShows rt date time_of_day deltaX deltaY surpriseClip isClipTrial isSurprise
sa__sp_1997_05_15_356_f 713 3 1 1 29 45 45 right 1 3 /Users/lab/Documents/experiments/2019/surprise/stim/4_noeffect.mov 1329 12-Apr-2019 09:41:01 2.711192e+02 -3.963101e+02 0 1
sa__sp_1997_05_15_356_f 713 3 2 1 13 45 45 right 1 3 /Users/lab/Documents/experiments/2019/surprise/stim/2_noeffect.mov 541 12-Apr-2019 09:41:04 7.762088e+01 -2.162257e+02 0 0
sa__sp_1997_05_15_356_f 713 3 3 1 40 -45 -45 left 1 3 /Users/lab/Documents/experiments/2019/surprise/stim/5_noeffect.mov 552 12-Apr-2019 09:41:07 1.021628e+02 4.250744e+00 0 0
sa__sp_1997_05_15_356_f 713 3 4 1 12 -45 -45 left 1 3 /Users/lab/Documents/experiments/2019/surprise/stim/2_effect.mov 841 12-Apr-2019 09:41:33 4.865056e+02 -4.864822e+02 1 1
sa__sp_1997_05_15_356_f 713 3 5 1 48 -45 -45 left 1 3 /Users/lab/Documents/experiments/2019/surprise/stim/6_noeffect.mov 597 12-Apr-2019 09:41:35 -1.989342e+02 5.480366e+01 0 0
sa__sp_1997_05_15_356_f 713 3 6 1 57 45 45 right 1 3 /Users/lab/Documents/experiments/2019/surprise/stim/8_effect.mov 722 12-Apr-2019 09:41:39 -2.537561e+02 -3.121101e+01 1 0
sa__sp_1997_05_15_356_f 713 3 7 1 11 -45 45 left 1 3 /Users/lab/Documents/experiments/2019/surprise/stim/2_effect.mov 674 12-Apr-2019 09:41:42 -1.848829e+02 -3.419829e+02 1 0
sa__sp_1997_05_15_356_f 713 3 8 1 9 45 45 right 1 3 /Users/lab/Documents/experiments/2019/surprise/stim/2_effect.mov 985 12-Apr-2019 09:42:07 -3.653688e+02 4.245376e+02 1 1
sa__sp_1997_05_15_356_f 713 3 9 1 21 45 45 right 1 3 /Users/lab/Documents/experiments/2019/surprise/stim/3_noeffect.mov 650 12-Apr-2019 09:42:10 -2.314319e+02 -1.766184e+02 0 0
sa__sp_1997_05_15_356_f 713 3 10 1 58 45 -45 right 1 3 /Users/lab/Documents/experiments/2019/surprise/stim/8_effect.mov 727 12-Apr-2019 09:42:13 3.394660e+02 9.572484e+01 1 0
sa__sp_1997_05_15_356_f 713 3 11 1 47 -45 45 left 1 3 /Users/lab/Documents/experiments/2019/surprise/stim/6_noeffect.mov 866 12-Apr-2019 09:42:17 5.285387e+01 3.655515e+02 0 0
sa__sp_1997_05_15_356_f 713 3 12 1 62 45 -45 right 1 3 /Users/lab/Documents/experiments/2019/surprise/stim/8_noeffect.mov 807 12-Apr-2019 09:42:38 1.615647e+02 4.853935e+02 0 1
sa__sp_1997_05_15_356_f 713 3 13 1 41 45 45 right 1 3 /Users/lab/Documents/experiments/2019/surprise/stim/6_effect.mov 1073 12-Apr-2019 09:42:41 -4.043597e+02 -2.647417e+02 1 0
sa__sp_1997_05_15_356_f 713 3 14 1 22 45 -45 right 1 3 /Users/lab/Documents/experiments/2019/surprise/stim/3_noeffect.mov 557 12-Apr-2019 09:42:44 1.653494e+02 -2.165731e+02 0 0
sa__sp_1997_05_15_356_f 713 3 15 1 65 45 45 right 1 3 /Users/lab/Documents/experiments/2019/surprise/stim/9_effect.mov 543 12-Apr-2019 09:42:47 -4.714449e+01 4.858532e+02 1 0
sa__sp_1997_05_15_356_f 713 3 16 1 54 45 -45 right 1 3 /Users/lab/Documents/experiments/2019/surprise/stim/7_noeffect.mov 846 12-Apr-2019 09:43:06 4.478694e+02 -3.472573e+02 0 1
sa__sp_1997_05_15_356_f 713 3 17 1 20 -45 -45 left 1 3 /Users/lab/Documents/experiments/2019/surprise/stim/3_effect.mov 679 12-Apr-2019 09:43:09 4.696220e+02 -4.353881e+02 1 0
sa__sp_1997_05_15_356_f 713 3 18 1 28 -45 -45 left 1 3 /Users/lab/Documents/experiments/2019/surprise/stim/4_effect.mov 632 12-Apr-2019 09:43:12 2.662080e+02 -3.719634e+02 1 0
sa__sp_1997_05_15_356_f 713 3 19 1 27 -45 45 left 1 3 /Users/lab/Documents/experiments/2019/surprise/stim/4_effect.mov 398 12-Apr-2019 09:43:15 1.855666e+02 -4.546690e+02 1 0
sa__sp_1997_05_15_356_f 713 3 20 1 17 45 45 right 1 3 /Users/lab/Documents/experiments/2019/surprise/stim/3_effect.mov 821 12-Apr-2019 09:43:33 -4.127148e+02 -4.135987e+02 1 1
sa__sp_1997_05_15_356_f 713 3 21 1 60 -45 -45 left 1 3 /Users/lab/Documents/experiments/2019/surprise/stim/8_effect.mov 749 12-Apr-2019 09:43:36 -4.211394e+02 2.581008e+02 1 0
sa__sp_1997_05_15_356_f 713 3 22 1 70 45 -45 right 1 3 /Users/lab/Documents/experiments/2019/surprise/stim/9_noeffect.mov 717 12-Apr-2019 09:43:39 7.037945e+01 8.680982e+01 0 0
sa__sp_1997_05_15_356_f 713 3 23 1 39 -45 45 left 1 3 /Users/lab/Documents/experiments/2019/surprise/stim/5_noeffect.mov 765 12-Apr-2019 09:43:43 -2.650013e+02 -2.086280e+02 0 0
sa__sp_1997_05_15_356_f 713 3 24 1 34 45 -45 right 1 3 /Users/lab/Documents/experiments/2019/surprise/stim/5_effect.mov 723 12-Apr-2019 09:43:59 3.049748e+02 1.047978e+02 1 1
sa__sp_1997_05_15_356_f 713 3 25 1 10 45 -45 right 1 3 /Users/lab/Documents/experiments/2019/surprise/stim/2_effect.mov 597 12-Apr-2019 09:44:02 3.373011e+02 -6.372962e+01 1 0
sa__sp_1997_05_15_356_f 713 3 26 1 8 -45 -45 left 1 3 /Users/lab/Documents/experiments/2019/surprise/stim/1_noeffect.mov 556 12-Apr-2019 09:44:05 -1.457463e+02 -4.736372e+02 1 0
sa__sp_1997_05_15_356_f 713 3 27 1 2 45 -45 right 1 3 /Users/lab/Documents/experiments/2019/surprise/stim/1_effect.mov 482 12-Apr-2019 09:44:08 4.255049e+02 -3.420543e+02 1 0
sa__sp_1997_05_15_356_f 713 3 28 1 3 -45 45 left 1 3 /Users/lab/Documents/experiments/2019/surprise/stim/1_effect.mov 945 12-Apr-2019 09:44:33 -3.879903e+02 -1.636161e+02 1 1
sa__sp_1997_05_15_356_f 713 3 29 1 36 -45 -45 left 1 3 /Users/lab/Documents/experiments/2019/surprise/stim/5_effect.mov 549 12-Apr-2019 09:44:36 -2.874074e+01 3.227263e+02 1 0
sa__sp_1997_05_15_356_f 713 3 30 1 61 45 45 right 1 3 /Users/lab/Documents/experiments/2019/surprise/stim/8_noeffect.mov 566 12-Apr-2019 09:44:39 4.995036e+01 4.453754e+02 0 0
sa__sp_1997_05_15_356_f 713 3 31 1 32 -45 -45 left 1 3 /Users/lab/Documents/experiments/2019/surprise/stim/4_noeffect.mov 970 12-Apr-2019 09:44:43 4.167550e+02 3.748421e+02 0 0
sa__sp_1997_05_15_356_f 713 3 32 1 24 -45 -45 left 1 3 /Users/lab/Documents/experiments/2019/surprise/stim/3_noeffect.mov 734 12-Apr-2019 09:45:01 -2.947725e+02 -1.230891e+01 0 1
sa__sp_1997_05_15_356_f 713 3 33 1 25 45 45 right 1 3 /Users/lab/Documents/experiments/2019/surprise/stim/4_effect.mov 722 12-Apr-2019 09:45:04 3.032062e+02 -3.919260e+02 1 0
sa__sp_1997_05_15_356_f 713 3 34 1 38 45 -45 right 1 3 /Users/lab/Documents/experiments/2019/surprise/stim/5_noeffect.mov 671 12-Apr-2019 09:45:07 -4.768169e+02 -7.369133e+00 0 0
sa__sp_1997_05_15_356_f 713 3 35 1 36 -45 45 left 1 3 /Users/lab/Documents/experiments/2019/surprise/stim/5_effect.mov 656 12-Apr-2019 09:45:10 3.772648e+02 -4.360968e+02 1 0
sa__sp_1997_05_15_356_f 713 3 36 1 49 45 45 right 1 3 /Users/lab/Documents/experiments/2019/surprise/stim/7_effect.mov 766 12-Apr-2019 09:45:29 3.363159e+02 4.603899e+02 1 1
sa__sp_1997_05_15_356_f 713 3 37 1 14 45 -45 right 1 3 /Users/lab/Documents/experiments/2019/surprise/stim/2_noeffect.mov 615 12-Apr-2019 09:45:32 -2.255372e+02 -3.976473e+02 0 0
sa__sp_1997_05_15_356_f 713 3 38 1 30 45 -45 right 1 3 /Users/lab/Documents/experiments/2019/surprise/stim/4_noeffect.mov 552 12-Apr-2019 09:45:35 3.049745e+02 9.580739e+01 0 0
sa__sp_1997_05_15_356_f 713 3 39 1 43 -45 45 left 1 3 /Users/lab/Documents/experiments/2019/surprise/stim/6_effect.mov 551 12-Apr-2019 09:45:38 -2.429920e+02 4.666616e+02 1 0
sa__sp_1997_05_15_356_f 713 3 40 1 56 -45 -45 left 1 3 /Users/lab/Documents/experiments/2019/surprise/stim/7_noeffect.mov 952 12-Apr-2019 09:45:57 -4.967612e+02 -7.160429e+01 0 1
sa__sp_1997_05_15_356_f 713 3 41 1 5 45 45 right 1 3 /Users/lab/Documents/experiments/2019/surprise/stim/1_noeffect.mov 617 12-Apr-2019 09:46:00 -2.510955e+01 4.131298e+02 1 0
sa__sp_1997_05_15_356_f 713 3 42 1 55 -45 45 left 1 3 /Users/lab/Documents/experiments/2019/surprise/stim/7_noeffect.mov 536 12-Apr-2019 09:46:03 -2.160371e+02 -2.135854e+02 0 0
sa__sp_1997_05_15_356_f 713 3 43 1 52 -45 -45 left 1 3 /Users/lab/Documents/experiments/2019/surprise/stim/7_effect.mov 520 12-Apr-2019 09:46:06 1.483201e+02 -1.966027e+02 1 0
sa__sp_1997_05_15_356_f 713 3 44 1 6 45 -45 right 1 3 /Users/lab/Documents/experiments/2019/surprise/stim/1_noeffect.mov 875 12-Apr-2019 09:46:31 3.744020e+02 -2.076475e+02 1 1
sa__sp_1997_05_15_356_f 713 3 45 1 72 -45 -45 left 1 3 /Users/lab/Documents/experiments/2019/surprise/stim/9_noeffect.mov 507 12-Apr-2019 09:46:34 2.927841e+02 2.989343e+02 0 0
sa__sp_1997_05_15_356_f 713 3 46 1 71 -45 45 left 1 3 /Users/lab/Documents/experiments/2019/surprise/stim/9_noeffect.mov 558 12-Apr-2019 09:46:37 6.192396e+01 1.740407e+02 0 0
sa__sp_1997_05_15_356_f 713 3 47 1 1 45 45 right 1 3 /Users/lab/Documents/experiments/2019/surprise/stim/1_effect.mov 787 12-Apr-2019 09:46:40 -1.443380e+02 2.126813e+02 1 0
sa__sp_1997_05_15_356_f 713 3 48 1 7 -45 45 left 1 3 /Users/lab/Documents/experiments/2019/surprise/stim/1_noeffect.mov 731 12-Apr-2019 09:47:05 -3.730437e+02 2.134504e+01 1 1
sa__sp_1997_05_15_356_f 713 3 49 1 15 -45 45 left 1 3 /Users/lab/Documents/experiments/2019/surprise/stim/2_noeffect.mov 631 12-Apr-2019 09:47:08 -1.225992e+02 4.083949e+02 0 0
sa__sp_1997_05_15_356_f 713 3 50 1 42 45 -45 right 1 3 /Users/lab/Documents/experiments/2019/surprise/stim/6_effect.mov 669 12-Apr-2019 09:47:11 1.619681e+01 1.189523e+02 1 0
sa__sp_1997_05_15_356_f 713 3 51 1 59 -45 45 left 1 3 /Users/lab/Documents/experiments/2019/surprise/stim/8_effect.mov 622 12-Apr-2019 09:47:14 -7.766559e+01 -4.747577e+02 1 0
sa__sp_1997_05_15_356_f 713 3 52 1 44 -45 -45 left 1 3 /Users/lab/Documents/experiments/2019/surprise/stim/6_effect.mov 735 12-Apr-2019 09:47:29 1.172997e+02 -3.286428e+02 1 1
sa__sp_1997_05_15_356_f 713 3 53 1 4 -45 -45 left 1 3 /Users/lab/Documents/experiments/2019/surprise/stim/1_effect.mov 644 12-Apr-2019 09:47:32 1.728016e+01 3.312848e+02 1 0
sa__sp_1997_05_15_356_f 713 3 54 1 68 -45 -45 left 1 3 /Users/lab/Documents/experiments/2019/surprise/stim/9_effect.mov 568 12-Apr-2019 09:47:35 1.184700e+02 -3.246632e+02 1 0
sa__sp_1997_05_15_356_f 713 3 55 1 50 45 -45 right 1 3 /Users/lab/Documents/experiments/2019/surprise/stim/7_effect.mov 794 12-Apr-2019 09:47:38 3.905560e+02 -3.003313e+02 1 0
sa__sp_1997_05_15_356_f 713 3 56 1 53 45 45 right 1 3 /Users/lab/Documents/experiments/2019/surprise/stim/7_noeffect.mov 719 12-Apr-2019 09:47:57 -1.841970e+02 -1.159408e+02 0 1
sa__sp_1997_05_15_356_f 713 3 57 1 45 45 45 right 1 3 /Users/lab/Documents/experiments/2019/surprise/stim/6_noeffect.mov 527 12-Apr-2019 09:48:00 1.120942e+02 -1.122285e+02 0 0
sa__sp_1997_05_15_356_f 713 3 58 1 66 45 -45 right 1 3 /Users/lab/Documents/experiments/2019/surprise/stim/9_effect.mov 584 12-Apr-2019 09:48:03 -6.752151e+01 4.515983e+02 1 0
sa__sp_1997_05_15_356_f 713 3 59 1 18 45 -45 right 1 3 /Users/lab/Documents/experiments/2019/surprise/stim/3_effect.mov 682 12-Apr-2019 09:48:06 -4.015466e+02 -8.832469e+01 1 0
sa__sp_1997_05_15_356_f 713 3 60 1 33 45 45 right 1 3 /Users/lab/Documents/experiments/2019/surprise/stim/5_effect.mov 605 12-Apr-2019 09:48:23 -3.220967e+02 2.086367e+02 1 1
sa__sp_1997_05_15_356_f 713 3 61 1 51 -45 45 left 1 3 /Users/lab/Documents/experiments/2019/surprise/stim/7_effect.mov 679 12-Apr-2019 09:48:26 1.998193e+02 -4.509196e+02 1 0
sa__sp_1997_05_15_356_f 713 3 62 1 64 -45 -45 left 1 3 /Users/lab/Documents/experiments/2019/surprise/stim/8_noeffect.mov 612 12-Apr-2019 09:48:29 2.943784e+02 4.765110e+02 0 0
sa__sp_1997_05_15_356_f 713 3 63 1 67 -45 45 left 1 3 /Users/lab/Documents/experiments/2019/surprise/stim/9_effect.mov 573 12-Apr-2019 09:48:32 -2.151566e+02 1.867786e+02 1 0
sa__sp_1997_05_15_356_f 713 3 64 1 19 -45 45 left 1 3 /Users/lab/Documents/experiments/2019/surprise/stim/3_effect.mov 816 12-Apr-2019 09:48:50 -1.872266e+02 -2.551159e+02 1 1
sa__sp_1997_05_15_356_f 713 3 65 1 46 45 -45 right 1 3 /Users/lab/Documents/experiments/2019/surprise/stim/6_noeffect.mov 591 12-Apr-2019 09:48:53 -4.599295e+02 7.624715e+01 0 0
sa__sp_1997_05_15_356_f 713 3 66 1 31 -45 45 left 1 3 /Users/lab/Documents/experiments/2019/surprise/stim/4_noeffect.mov 617 12-Apr-2019 09:48:56 -4.993217e+02 -3.618080e+02 0 0
sa__sp_1997_05_15_356_f 713 3 67 1 26 45 -45 right 1 3 /Users/lab/Documents/experiments/2019/surprise/stim/4_effect.mov 672 12-Apr-2019 09:48:59 4.892490e+02 -1.634498e+02 1 0
sa__sp_1997_05_15_356_f 713 3 68 1 37 45 45 right 1 3 /Users/lab/Documents/experiments/2019/surprise/stim/5_noeffect.mov 709 12-Apr-2019 09:49:16 6.526252e+01 -3.021591e+01 0 1
sa__sp_1997_05_15_356_f 713 3 69 1 16 -45 -45 left 1 3 /Users/lab/Documents/experiments/2019/surprise/stim/2_noeffect.mov 579 12-Apr-2019 09:49:19 -4.354941e+02 -3.366287e+02 0 0
sa__sp_1997_05_15_356_f 713 3 70 1 63 -45 45 left 1 3 /Users/lab/Documents/experiments/2019/surprise/stim/8_noeffect.mov 571 12-Apr-2019 09:49:22 -4.452357e+02 -7.933573e+01 0 0
sa__sp_1997_05_15_356_f 713 3 71 1 23 -45 45 left 1 3 /Users/lab/Documents/experiments/2019/surprise/stim/3_noeffect.mov 591 12-Apr-2019 09:49:25 3.308436e+02 -1.639393e+01 0 0
sa__sp_1997_05_15_356_f 713 3 72 1 69 45 45 right 1 3 /Users/lab/Documents/experiments/2019/surprise/stim/9_noeffect.mov 582 12-Apr-2019 09:49:28 -1.639888e+02 -4.065694e+02 0 0
