subject_name subjectNumber iTrial unshuffled_trial targetOrientation flankersOrientation response correct onscreen_stim_duration magicShows rt date time_of_day deltaX deltaY surpriseClip isClipTrial
38IP04_F20 3 1 36 -45 -45 left 1 5.000000e-01 /Users/lab/Documents/magic3Definitivo/stim/5_effect.mov 608 02-May-2017 12:48:16 3.719029e+02 4.940737e+02 1 1
38IP04_F20 3 2 37 45 45 right 1 5.000000e-01 /Users/lab/Documents/magic3Definitivo/stim/5_noeffect.mov 370 02-May-2017 12:48:19 4.117546e+02 -3.872042e+02 0 0
38IP04_F20 3 3 20 -45 -45 left 1 5.000000e-01 /Users/lab/Documents/magic3Definitivo/stim/3_effect.mov 349 02-May-2017 12:48:22 -3.882804e+01 -1.613312e+02 1 0
38IP04_F20 3 4 72 -45 -45 left 1 5.000000e-01 /Users/lab/Documents/magic3Definitivo/stim/9_noeffect.mov 486 02-May-2017 12:48:43 2.441359e+02 2.966329e+02 0 1
38IP04_F20 3 5 22 45 -45 right 1 5.000000e-01 /Users/lab/Documents/magic3Definitivo/stim/3_noeffect.mov 661 02-May-2017 12:48:46 4.437770e+02 -3.688539e+02 0 0
38IP04_F20 3 6 31 -45 45 left 1 5.000000e-01 /Users/lab/Documents/magic3Definitivo/stim/4_noeffect.mov 383 02-May-2017 12:48:49 -5.310098e+01 -4.787799e+02 0 0
38IP04_F20 3 7 23 -45 45 left 1 5.000000e-01 /Users/lab/Documents/magic3Definitivo/stim/3_noeffect.mov 400 02-May-2017 12:48:51 -1.282569e+02 -4.647162e+02 0 0
38IP04_F20 3 8 10 45 -45 right 1 5.000000e-01 /Users/lab/Documents/magic3Definitivo/stim/2_effect.mov 812 02-May-2017 12:49:17 3.604548e+02 2.005056e+02 1 1
38IP04_F20 3 9 25 45 45 right 1 5.000000e-01 /Users/lab/Documents/magic3Definitivo/stim/4_effect.mov 512 02-May-2017 12:49:20 8.005366e+01 -3.217980e+02 1 0
38IP04_F20 3 10 66 45 -45 left 0 5.000000e-01 /Users/lab/Documents/magic3Definitivo/stim/9_effect.mov 429 02-May-2017 12:49:22 3.282814e+02 -4.090410e+02 1 0
38IP04_F20 3 11 71 -45 45 left 1 5.000000e-01 /Users/lab/Documents/magic3Definitivo/stim/9_noeffect.mov 528 02-May-2017 12:49:25 -1.520363e+02 -5.749142e+01 0 0
38IP04_F20 3 12 68 -45 -45 left 1 5.000000e-01 /Users/lab/Documents/magic3Definitivo/stim/9_effect.mov 743 02-May-2017 12:49:47 -2.854535e+02 6.512489e+01 1 1
38IP04_F20 3 13 64 -45 -45 left 1 5.000000e-01 /Users/lab/Documents/magic3Definitivo/stim/8_noeffect.mov 498 02-May-2017 12:49:50 3.601685e+02 3.175758e+02 0 0
38IP04_F20 3 14 3 -45 45 right 0 5.000000e-01 /Users/lab/Documents/magic3Definitivo/stim/1_effect.mov 497 02-May-2017 12:49:53 -4.137314e+02 -4.790782e+02 1 0
38IP04_F20 3 15 52 -45 -45 left 1 5.000000e-01 /Users/lab/Documents/magic3Definitivo/stim/7_effect.mov 497 02-May-2017 12:49:56 2.246946e+02 5.053564e+01 1 0
38IP04_F20 3 16 60 -45 -45 left 1 5.000000e-01 /Users/lab/Documents/magic3Definitivo/stim/8_effect.mov 560 02-May-2017 12:50:17 -2.311700e+02 3.735023e+01 1 1
38IP04_F20 3 17 50 45 -45 right 1 5.000000e-01 /Users/lab/Documents/magic3Definitivo/stim/7_effect.mov 539 02-May-2017 12:50:20 1.477726e+02 3.237722e+02 1 0
38IP04_F20 3 18 30 45 -45 right 1 5.000000e-01 /Users/lab/Documents/magic3Definitivo/stim/4_noeffect.mov 511 02-May-2017 12:50:22 -1.988218e+01 -2.683870e+02 0 0
38IP04_F20 3 19 74 45 -45 right 1 5.000000e-01 /Users/lab/Documents/magic3Definitivo/stim/10_effect.mov 401 02-May-2017 12:50:25 1.569337e+02 -4.009424e+02 1 0
38IP04_F20 3 20 45 45 45 right 1 5.000000e-01 /Users/lab/Documents/magic3Definitivo/stim/6_noeffect.mov 542 02-May-2017 12:50:40 -4.367098e+02 2.617450e+02 0 1
38IP04_F20 3 21 77 45 45 right 1 5.000000e-01 /Users/lab/Documents/magic3Definitivo/stim/10_noeffect.mov 437 02-May-2017 12:50:42 2.148093e+02 -4.949661e+02 0 0
38IP04_F20 3 22 76 -45 -45 left 1 5.000000e-01 /Users/lab/Documents/magic3Definitivo/stim/10_effect.mov 439 02-May-2017 12:50:45 1.071894e+02 -2.856588e+02 1 0
38IP04_F20 3 23 80 -45 -45 left 1 5.000000e-01 /Users/lab/Documents/magic3Definitivo/stim/10_noeffect.mov 400 02-May-2017 12:50:48 5.825946e+01 -3.446269e+02 0 0
38IP04_F20 3 24 41 45 45 right 1 5.000000e-01 /Users/lab/Documents/magic3Definitivo/stim/6_effect.mov 661 02-May-2017 12:51:03 -7.497031e+01 2.613772e+02 1 1
38IP04_F20 3 25 18 45 -45 right 1 5.000000e-01 /Users/lab/Documents/magic3Definitivo/stim/3_effect.mov 545 02-May-2017 12:51:06 -2.824206e+02 3.177745e+01 1 0
38IP04_F20 3 26 33 45 45 right 1 5.000000e-01 /Users/lab/Documents/magic3Definitivo/stim/5_effect.mov 390 02-May-2017 12:51:08 -5.105974e+01 5.983498e+01 1 0
38IP04_F20 3 27 61 45 45 right 1 5.000000e-01 /Users/lab/Documents/magic3Definitivo/stim/8_noeffect.mov 449 02-May-2017 12:51:11 -1.460963e+01 2.335483e+02 0 0
38IP04_F20 3 28 29 45 45 right 1 5.000000e-01 /Users/lab/Documents/magic3Definitivo/stim/4_noeffect.mov 478 02-May-2017 12:51:28 4.973345e+02 -5.924639e+01 0 1
38IP04_F20 3 29 36 -45 45 right 0 5.000000e-01 /Users/lab/Documents/magic3Definitivo/stim/5_effect.mov 577 02-May-2017 12:51:31 -2.668676e+02 3.878827e+02 1 0
38IP04_F20 3 30 69 45 45 right 1 5.000000e-01 /Users/lab/Documents/magic3Definitivo/stim/9_noeffect.mov 457 02-May-2017 12:51:34 1.681692e+02 3.363796e+02 0 0
38IP04_F20 3 31 11 -45 45 left 1 5.000000e-01 /Users/lab/Documents/magic3Definitivo/stim/2_effect.mov 394 02-May-2017 12:51:36 -1.125369e+02 -1.546891e+02 1 0
38IP04_F20 3 32 51 -45 45 left 1 5.000000e-01 /Users/lab/Documents/magic3Definitivo/stim/7_effect.mov 710 02-May-2017 12:51:56 -4.330885e+02 -2.823170e+02 1 1
38IP04_F20 3 33 63 -45 45 left 1 5.000000e-01 /Users/lab/Documents/magic3Definitivo/stim/8_noeffect.mov 612 02-May-2017 12:51:58 -3.262300e+02 4.055673e+02 0 0
38IP04_F20 3 34 5 45 45 right 1 5.000000e-01 /Users/lab/Documents/magic3Definitivo/stim/1_noeffect.mov 463 02-May-2017 12:52:01 -1.314977e+02 3.019757e+02 1 0
38IP04_F20 3 35 47 -45 45 left 1 5.000000e-01 /Users/lab/Documents/magic3Definitivo/stim/6_noeffect.mov 546 02-May-2017 12:52:04 -3.429344e+02 4.176923e+02 0 0
38IP04_F20 3 36 40 -45 -45 left 1 5.000000e-01 /Users/lab/Documents/magic3Definitivo/stim/5_noeffect.mov 593 02-May-2017 12:52:21 -2.230868e+02 -3.301943e+02 0 1
38IP04_F20 3 37 21 45 45 right 1 5.000000e-01 /Users/lab/Documents/magic3Definitivo/stim/3_noeffect.mov 445 02-May-2017 12:52:23 -2.623117e+02 -3.007820e+02 0 0
38IP04_F20 3 38 38 45 -45 left 0 5.000000e-01 /Users/lab/Documents/magic3Definitivo/stim/5_noeffect.mov 421 02-May-2017 12:52:26 -2.699950e+02 4.664830e+02 0 0
38IP04_F20 3 39 65 45 45 right 1 5.000000e-01 /Users/lab/Documents/magic3Definitivo/stim/9_effect.mov 441 02-May-2017 12:52:29 -5.241919e+01 1.858334e+02 1 0
38IP04_F20 3 40 56 -45 -45 left 1 5.000000e-01 /Users/lab/Documents/magic3Definitivo/stim/7_noeffect.mov 484 02-May-2017 12:52:48 3.487401e+02 -3.615824e+02 0 1
38IP04_F20 3 41 24 -45 -45 left 1 5.000000e-01 /Users/lab/Documents/magic3Definitivo/stim/3_noeffect.mov 494 02-May-2017 12:52:50 -2.085754e+02 4.196758e+02 0 0
38IP04_F20 3 42 9 45 45 right 1 5.000000e-01 /Users/lab/Documents/magic3Definitivo/stim/2_effect.mov 498 02-May-2017 12:52:53 4.221881e+02 4.802008e+01 1 0
38IP04_F20 3 43 58 45 -45 right 1 5.000000e-01 /Users/lab/Documents/magic3Definitivo/stim/8_effect.mov 644 02-May-2017 12:52:56 -4.563261e+01 4.775357e+02 1 0
38IP04_F20 3 44 16 -45 -45 left 1 5.000000e-01 /Users/lab/Documents/magic3Definitivo/stim/2_noeffect.mov 676 02-May-2017 12:53:21 -1.987741e+02 2.460200e+02 0 1
38IP04_F20 3 45 32 -45 -45 left 1 5.000000e-01 /Users/lab/Documents/magic3Definitivo/stim/4_noeffect.mov 428 02-May-2017 12:53:24 5.178419e+01 -1.505102e+02 0 0
38IP04_F20 3 46 2 45 -45 right 1 5.000000e-01 /Users/lab/Documents/magic3Definitivo/stim/1_effect.mov 545 02-May-2017 12:53:26 -2.171820e+02 -4.863102e+02 1 0
38IP04_F20 3 47 44 -45 -45 left 1 5.000000e-01 /Users/lab/Documents/magic3Definitivo/stim/6_effect.mov 375 02-May-2017 12:53:29 -1.912104e+02 2.822963e+02 1 0
38IP04_F20 3 48 6 45 -45 right 1 5.000000e-01 /Users/lab/Documents/magic3Definitivo/stim/1_noeffect.mov 472 02-May-2017 12:53:54 -1.133579e+02 2.136223e+02 1 1
38IP04_F20 3 49 17 45 45 right 1 5.000000e-01 /Users/lab/Documents/magic3Definitivo/stim/3_effect.mov 388 02-May-2017 12:53:57 6.048751e+01 -2.065432e+02 1 0
38IP04_F20 3 50 26 45 -45 right 1 5.000000e-01 /Users/lab/Documents/magic3Definitivo/stim/4_effect.mov 611 02-May-2017 12:53:59 -4.183249e+02 -1.609550e+01 1 0
38IP04_F20 3 51 34 45 -45 right 1 5.000000e-01 /Users/lab/Documents/magic3Definitivo/stim/5_effect.mov 745 02-May-2017 12:54:02 2.220346e+02 -2.155253e+02 1 0
38IP04_F20 3 52 48 -45 -45 left 1 5.000000e-01 /Users/lab/Documents/magic3Definitivo/stim/6_noeffect.mov 543 02-May-2017 12:54:17 -8.085609e+01 1.402264e+02 0 1
38IP04_F20 3 53 4 -45 -45 left 1 5.000000e-01 /Users/lab/Documents/magic3Definitivo/stim/1_effect.mov 511 02-May-2017 12:54:20 3.394314e+02 -3.457830e+02 1 0
38IP04_F20 3 54 59 -45 45 left 1 5.000000e-01 /Users/lab/Documents/magic3Definitivo/stim/8_effect.mov 589 02-May-2017 12:54:23 -3.005484e+02 1.118092e+02 1 0
38IP04_F20 3 55 14 45 -45 right 1 5.000000e-01 /Users/lab/Documents/magic3Definitivo/stim/2_noeffect.mov 412 02-May-2017 12:54:26 5.868014e-01 -1.627522e+02 0 0
38IP04_F20 3 56 19 -45 45 left 1 5.000000e-01 /Users/lab/Documents/magic3Definitivo/stim/3_effect.mov 577 02-May-2017 12:54:44 -4.355627e+02 1.093875e+02 1 1
38IP04_F20 3 57 1 45 45 right 1 5.000000e-01 /Users/lab/Documents/magic3Definitivo/stim/1_effect.mov 496 02-May-2017 12:54:47 -4.909150e+02 -4.599345e+02 1 0
38IP04_F20 3 58 15 -45 45 left 1 5.000000e-01 /Users/lab/Documents/magic3Definitivo/stim/2_noeffect.mov 529 02-May-2017 12:54:49 2.298220e+02 4.694294e+02 0 0
38IP04_F20 3 59 49 45 45 right 1 5.000000e-01 /Users/lab/Documents/magic3Definitivo/stim/7_effect.mov 403 02-May-2017 12:54:52 -9.255404e+01 2.358717e+01 1 0
38IP04_F20 3 60 75 -45 45 left 1 5.000000e-01 /Users/lab/Documents/magic3Definitivo/stim/10_effect.mov 593 02-May-2017 12:55:07 -3.312721e+02 -4.081076e+02 1 1
38IP04_F20 3 61 12 -45 -45 left 1 5.000000e-01 /Users/lab/Documents/magic3Definitivo/stim/2_effect.mov 393 02-May-2017 12:55:09 1.607953e+02 -4.713978e+02 1 0
38IP04_F20 3 62 78 45 -45 left 0 5.000000e-01 /Users/lab/Documents/magic3Definitivo/stim/10_noeffect.mov 363 02-May-2017 12:55:12 -2.165892e+01 -2.890079e+02 0 0
38IP04_F20 3 63 55 -45 45 left 1 5.000000e-01 /Users/lab/Documents/magic3Definitivo/stim/7_noeffect.mov 577 02-May-2017 12:55:15 4.686840e+02 4.917144e+02 0 0
38IP04_F20 3 64 13 45 45 right 1 5.000000e-01 /Users/lab/Documents/magic3Definitivo/stim/2_noeffect.mov 480 02-May-2017 12:55:39 -2.223610e+02 -3.522764e+02 0 1
38IP04_F20 3 65 39 -45 45 left 1 5.000000e-01 /Users/lab/Documents/magic3Definitivo/stim/5_noeffect.mov 679 02-May-2017 12:55:42 -4.061306e+02 3.301279e+02 0 0
38IP04_F20 3 66 27 -45 45 left 1 5.000000e-01 /Users/lab/Documents/magic3Definitivo/stim/4_effect.mov 477 02-May-2017 12:55:45 -2.038629e+02 -2.583071e+02 1 0
38IP04_F20 3 67 28 -45 -45 left 1 5.000000e-01 /Users/lab/Documents/magic3Definitivo/stim/4_effect.mov 484 02-May-2017 12:55:48 2.112273e+02 4.317936e+02 1 0
38IP04_F20 3 68 73 45 45 right 1 5.000000e-01 /Users/lab/Documents/magic3Definitivo/stim/10_effect.mov 726 02-May-2017 12:56:03 3.921052e+02 3.604886e+02 1 1
38IP04_F20 3 69 46 45 -45 right 1 5.000000e-01 /Users/lab/Documents/magic3Definitivo/stim/6_noeffect.mov 529 02-May-2017 12:56:05 -3.544512e+02 1.217909e+02 0 0
38IP04_F20 3 70 43 -45 45 left 1 5.000000e-01 /Users/lab/Documents/magic3Definitivo/stim/6_effect.mov 538 02-May-2017 12:56:08 1.397782e+02 -3.381426e+02 1 0
38IP04_F20 3 71 67 -45 45 left 1 5.000000e-01 /Users/lab/Documents/magic3Definitivo/stim/9_effect.mov 572 02-May-2017 12:56:11 -4.832058e+02 5.859472e-01 1 0
38IP04_F20 3 72 57 45 45 right 1 5.000000e-01 /Users/lab/Documents/magic3Definitivo/stim/8_effect.mov 562 02-May-2017 12:56:32 4.467295e+02 1.047657e+02 1 1
38IP04_F20 3 73 62 45 -45 right 1 5.000000e-01 /Users/lab/Documents/magic3Definitivo/stim/8_noeffect.mov 661 02-May-2017 12:56:35 4.966752e+00 1.847187e+02 0 0
38IP04_F20 3 74 54 45 -45 right 1 5.000000e-01 /Users/lab/Documents/magic3Definitivo/stim/7_noeffect.mov 579 02-May-2017 12:56:38 6.918786e+01 2.425750e+02 0 0
38IP04_F20 3 75 7 -45 45 right 0 5.000000e-01 /Users/lab/Documents/magic3Definitivo/stim/1_noeffect.mov 482 02-May-2017 12:56:41 -3.663361e+02 4.138722e+02 1 0
38IP04_F20 3 76 42 45 -45 right 1 5.000000e-01 /Users/lab/Documents/magic3Definitivo/stim/6_effect.mov 560 02-May-2017 12:56:55 -9.537802e+01 -2.259570e+02 1 1
38IP04_F20 3 77 53 45 45 right 1 5.000000e-01 /Users/lab/Documents/magic3Definitivo/stim/7_noeffect.mov 490 02-May-2017 12:56:58 -4.652824e+02 -3.478859e+02 0 0
38IP04_F20 3 78 70 45 -45 right 1 5.000000e-01 /Users/lab/Documents/magic3Definitivo/stim/9_noeffect.mov 441 02-May-2017 12:57:01 2.451111e+01 1.260929e+02 0 0
38IP04_F20 3 79 79 -45 45 left 1 5.000000e-01 /Users/lab/Documents/magic3Definitivo/stim/10_noeffect.mov 661 02-May-2017 12:57:04 -6.410535e+01 -2.827404e+02 0 0
38IP04_F20 3 80 8 -45 -45 left 1 5.000000e-01 /Users/lab/Documents/magic3Definitivo/stim/1_noeffect.mov 450 02-May-2017 12:57:07 3.073211e+02 2.015428e+02 1 0
