subject_name subjectNumber block iTrial unshuffled_trial targetOrientation flankersOrientation response correct onscreen_stim_duration magicShows rt date time_of_day deltaX deltaY surpriseClip isClipTrial isSurprise
ce_ro_ 1999_10_09_556_f 902 3 1 0 56 -45 -45 NORESP 0 3 /Users/lab/Documents/experiments/2019/surprise/stim/7_noeffect.mov 3000 14-May-2019 16:32:13 -2.259524e+02 3.202698e+02 0 1
ce_ro_ 1999_10_09_556_f 902 3 2 0 51 -45 45 NORESP 0 3 /Users/lab/Documents/experiments/2019/surprise/stim/7_noeffect.mov 3000 14-May-2019 16:32:19 -1.718176e+01 4.651134e+02 0 0
ce_ro_ 1999_10_09_556_f 902 3 3 0 29 45 45 right 1 3 /Users/lab/Documents/experiments/2019/surprise/stim/4_noeffect.mov 1249 14-May-2019 16:32:22 4.830400e+02 2.956411e+02 0 0
ce_ro_ 1999_10_09_556_f 902 3 4 0 58 45 -45 right 1 3 /Users/lab/Documents/experiments/2019/surprise/stim/8_noeffect.mov 1228 14-May-2019 16:32:44 6.723789e+01 -3.393891e+02 0 1
ce_ro_ 1999_10_09_556_f 902 3 5 0 47 -45 45 NORESP 0 3 /Users/lab/Documents/experiments/2019/surprise/stim/6_noeffect.mov 2999 14-May-2019 16:32:49 -3.236831e+02 1.526088e+02 0 0
ce_ro_ 1999_10_09_556_f 902 3 6 0 74 45 -45 right 1 3 /Users/lab/Documents/experiments/2019/surprise/stim/9_noeffect.mov 910 14-May-2019 16:32:53 -9.507671e+01 4.694022e+02 0 0
ce_ro_ 1999_10_09_556_f 902 3 7 0 44 -45 -45 NORESP 0 3 /Users/lab/Documents/experiments/2019/surprise/stim/6_noeffect.mov 2999 14-May-2019 16:32:58 -3.022525e+02 1.828604e+02 0 0
ce_ro_ 1999_10_09_556_f 902 3 8 0 80 -45 -45 NORESP 0 3 /Users/lab/Documents/experiments/2019/surprise/stim/9_noeffect.mov 3000 14-May-2019 16:33:22 1.479446e+02 8.654528e+01 0 1
ce_ro_ 1999_10_09_556_f 902 3 9 0 62 45 -45 right 1 3 /Users/lab/Documents/experiments/2019/surprise/stim/8_noeffect.mov 718 14-May-2019 16:33:25 -3.954676e+02 -2.833554e+02 0 0
ce_ro_ 1999_10_09_556_f 902 3 10 0 35 -45 45 NORESP 0 3 /Users/lab/Documents/experiments/2019/surprise/stim/5_noeffect.mov 2999 14-May-2019 16:33:30 -1.180416e+02 4.169233e+02 0 0
ce_ro_ 1999_10_09_556_f 902 3 11 0 25 45 45 right 1 3 /Users/lab/Documents/experiments/2019/surprise/stim/4_noeffect.mov 821 14-May-2019 16:33:33 -3.713948e+02 -2.619699e+02 0 0
ce_ro_ 1999_10_09_556_f 902 3 12 0 21 45 45 right 1 3 /Users/lab/Documents/experiments/2019/surprise/stim/3_noeffect.mov 1037 14-May-2019 16:33:52 4.510179e+02 -3.292063e+02 0 1
ce_ro_ 1999_10_09_556_f 902 3 13 0 20 -45 -45 NORESP 0 3 /Users/lab/Documents/experiments/2019/surprise/stim/2_noeffect.mov 2999 14-May-2019 16:33:57 -4.469232e+02 1.665448e+01 0 0
ce_ro_ 1999_10_09_556_f 902 3 14 0 27 -45 45 NORESP 0 3 /Users/lab/Documents/experiments/2019/surprise/stim/4_noeffect.mov 3000 14-May-2019 16:34:03 -1.721640e+02 -1.880505e+02 0 0
ce_ro_ 1999_10_09_556_f 902 3 15 0 50 45 -45 right 1 3 /Users/lab/Documents/experiments/2019/surprise/stim/7_noeffect.mov 638 14-May-2019 16:34:06 -8.654287e+01 3.274383e+02 0 0
ce_ro_ 1999_10_09_556_f 902 3 16 0 34 45 -45 right 1 3 /Users/lab/Documents/experiments/2019/surprise/stim/5_noeffect.mov 1183 14-May-2019 16:34:23 3.831533e+02 -4.616486e+02 0 1
ce_ro_ 1999_10_09_556_f 902 3 17 0 78 45 -45 right 1 3 /Users/lab/Documents/experiments/2019/surprise/stim/9_noeffect.mov 693 14-May-2019 16:34:26 1.000676e+02 -1.908467e+02 0 0
ce_ro_ 1999_10_09_556_f 902 3 18 0 41 45 45 right 1 3 /Users/lab/Documents/experiments/2019/surprise/stim/6_noeffect.mov 617 14-May-2019 16:34:29 -6.740959e+01 4.961028e+02 0 0
ce_ro_ 1999_10_09_556_f 902 3 19 0 45 45 45 right 1 3 /Users/lab/Documents/experiments/2019/surprise/stim/6_noeffect.mov 698 14-May-2019 16:34:32 -7.762978e+01 2.999657e+02 0 0
ce_ro_ 1999_10_09_556_f 902 3 20 0 66 45 -45 right 1 3 /Users/lab/Documents/experiments/2019/surprise/stim/9_noeffect.mov 866 14-May-2019 16:34:54 1.241517e+02 -3.652150e+02 0 1
ce_ro_ 1999_10_09_556_f 902 3 21 0 19 -45 45 NORESP 0 3 /Users/lab/Documents/experiments/2019/surprise/stim/2_noeffect.mov 2999 14-May-2019 16:34:59 2.207978e+02 -3.206044e+02 0 0
ce_ro_ 1999_10_09_556_f 902 3 22 0 38 45 -45 right 1 3 /Users/lab/Documents/experiments/2019/surprise/stim/5_noeffect.mov 557 14-May-2019 16:35:02 1.517351e+02 1.300764e+02 0 0
ce_ro_ 1999_10_09_556_f 902 3 23 0 48 -45 -45 NORESP 0 3 /Users/lab/Documents/experiments/2019/surprise/stim/6_noeffect.mov 2999 14-May-2019 16:35:08 -4.050867e+01 2.845139e+02 0 0
ce_ro_ 1999_10_09_556_f 902 3 24 0 59 -45 45 NORESP 0 3 /Users/lab/Documents/experiments/2019/surprise/stim/8_noeffect.mov 2999 14-May-2019 16:35:31 4.004734e+02 4.988986e+01 0 1
ce_ro_ 1999_10_09_556_f 902 3 25 0 54 45 -45 right 1 3 /Users/lab/Documents/experiments/2019/surprise/stim/7_noeffect.mov 719 14-May-2019 16:35:34 -1.592290e+02 -4.900199e+02 0 0
ce_ro_ 1999_10_09_556_f 902 3 26 0 7 -45 45 NORESP 0 3 /Users/lab/Documents/experiments/2019/surprise/stim/1_noeffect.mov 3000 14-May-2019 16:35:39 9.002666e+01 -3.216875e+02 0 0
ce_ro_ 1999_10_09_556_f 902 3 27 0 4 -45 -45 NORESP 0 3 /Users/lab/Documents/experiments/2019/surprise/stim/1_noeffect.mov 2999 14-May-2019 16:35:44 4.992852e+02 3.122061e+02 0 0
ce_ro_ 1999_10_09_556_f 902 3 28 0 11 -45 45 NORESP 0 3 /Users/lab/Documents/experiments/2019/surprise/stim/2_noeffect.mov 2999 14-May-2019 16:36:11 -1.392841e+02 3.281052e+02 0 1
ce_ro_ 1999_10_09_556_f 902 3 29 0 26 45 -45 right 1 3 /Users/lab/Documents/experiments/2019/surprise/stim/4_noeffect.mov 666 14-May-2019 16:36:14 4.356634e+02 -3.673091e+02 0 0
ce_ro_ 1999_10_09_556_f 902 3 30 0 70 45 -45 right 1 3 /Users/lab/Documents/experiments/2019/surprise/stim/9_noeffect.mov 731 14-May-2019 16:36:18 4.942602e+02 -3.035438e+02 0 0
ce_ro_ 1999_10_09_556_f 902 3 31 0 6 45 -45 right 1 3 /Users/lab/Documents/experiments/2019/surprise/stim/1_noeffect.mov 619 14-May-2019 16:36:21 6.827895e+01 1.509195e+02 0 0
ce_ro_ 1999_10_09_556_f 902 3 32 0 37 45 45 right 1 3 /Users/lab/Documents/experiments/2019/surprise/stim/5_noeffect.mov 962 14-May-2019 16:36:38 5.145565e+01 1.498531e+02 0 1
ce_ro_ 1999_10_09_556_f 902 3 33 0 24 -45 -45 NORESP 0 3 /Users/lab/Documents/experiments/2019/surprise/stim/3_noeffect.mov 3000 14-May-2019 16:36:43 -9.340900e+01 3.321879e+02 0 0
ce_ro_ 1999_10_09_556_f 902 3 34 0 77 45 45 right 1 3 /Users/lab/Documents/experiments/2019/surprise/stim/9_noeffect.mov 1003 14-May-2019 16:36:47 -3.980478e+02 3.541098e+02 0 0
ce_ro_ 1999_10_09_556_f 902 3 35 0 39 -45 45 NORESP 0 3 /Users/lab/Documents/experiments/2019/surprise/stim/5_noeffect.mov 2999 14-May-2019 16:36:52 -1.960365e+02 -2.838300e+01 0 0
ce_ro_ 1999_10_09_556_f 902 3 36 0 75 -45 45 NORESP 0 3 /Users/lab/Documents/experiments/2019/surprise/stim/9_noeffect.mov 2999 14-May-2019 16:37:16 3.158579e+02 1.914750e+02 0 1
ce_ro_ 1999_10_09_556_f 902 3 37 0 5 45 45 right 1 3 /Users/lab/Documents/experiments/2019/surprise/stim/1_noeffect.mov 781 14-May-2019 16:37:19 -3.187818e+02 -4.686242e+02 0 0
ce_ro_ 1999_10_09_556_f 902 3 38 0 71 -45 45 NORESP 0 3 /Users/lab/Documents/experiments/2019/surprise/stim/9_noeffect.mov 2999 14-May-2019 16:37:24 -4.346468e+02 -2.417867e+02 0 0
ce_ro_ 1999_10_09_556_f 902 3 39 0 72 -45 -45 NORESP 0 3 /Users/lab/Documents/experiments/2019/surprise/stim/9_noeffect.mov 2999 14-May-2019 16:37:29 -4.432364e+01 4.869401e+02 0 0
ce_ro_ 1999_10_09_556_f 902 3 40 0 16 -45 -45 NORESP 0 3 /Users/lab/Documents/experiments/2019/surprise/stim/2_noeffect.mov 3013 14-May-2019 16:37:56 3.383826e+02 -3.876086e+02 0 1
ce_ro_ 1999_10_09_556_f 902 3 41 0 2 45 -45 right 1 3 /Users/lab/Documents/experiments/2019/surprise/stim/1_noeffect.mov 647 14-May-2019 16:37:59 4.449213e+02 -2.523899e+02 0 0
ce_ro_ 1999_10_09_556_f 902 3 42 0 36 -45 -45 NORESP 0 3 /Users/lab/Documents/experiments/2019/surprise/stim/5_noeffect.mov 2999 14-May-2019 16:38:05 -4.281476e+02 -4.659816e+02 0 0
ce_ro_ 1999_10_09_556_f 902 3 43 0 40 -45 -45 NORESP 0 3 /Users/lab/Documents/experiments/2019/surprise/stim/5_noeffect.mov 2999 14-May-2019 16:38:10 4.696044e+02 -2.327790e+02 0 0
ce_ro_ 1999_10_09_556_f 902 3 44 0 32 -45 -45 NORESP 0 3 /Users/lab/Documents/experiments/2019/surprise/stim/4_noeffect.mov 2999 14-May-2019 16:38:29 2.821844e+02 -1.579784e+02 0 1
ce_ro_ 1999_10_09_556_f 902 3 45 0 63 -45 45 NORESP 0 3 /Users/lab/Documents/experiments/2019/surprise/stim/8_noeffect.mov 2998 14-May-2019 16:38:34 4.131501e+02 -4.604926e+02 0 0
ce_ro_ 1999_10_09_556_f 902 3 46 0 42 45 -45 right 1 3 /Users/lab/Documents/experiments/2019/surprise/stim/6_noeffect.mov 603 14-May-2019 16:38:37 -2.593871e+02 3.847143e+02 0 0
ce_ro_ 1999_10_09_556_f 902 3 47 0 53 45 45 right 1 3 /Users/lab/Documents/experiments/2019/surprise/stim/7_noeffect.mov 565 14-May-2019 16:38:40 -4.619464e+02 -4.577974e+02 0 0
ce_ro_ 1999_10_09_556_f 902 3 48 0 52 -45 -45 NORESP 0 3 /Users/lab/Documents/experiments/2019/surprise/stim/7_noeffect.mov 3000 14-May-2019 16:39:01 -3.056740e+02 3.217615e+02 0 1
ce_ro_ 1999_10_09_556_f 902 3 49 0 8 -45 -45 NORESP 0 3 /Users/lab/Documents/experiments/2019/surprise/stim/1_noeffect.mov 2999 14-May-2019 16:39:07 4.743753e+02 1.003662e+02 0 0
ce_ro_ 1999_10_09_556_f 902 3 50 0 69 45 45 right 1 3 /Users/lab/Documents/experiments/2019/surprise/stim/9_noeffect.mov 549 14-May-2019 16:39:10 -1.937404e+02 -2.519921e+02 0 0
ce_ro_ 1999_10_09_556_f 902 3 51 0 65 45 45 right 1 3 /Users/lab/Documents/experiments/2019/surprise/stim/9_noeffect.mov 613 14-May-2019 16:39:13 -1.383987e+02 1.333576e+02 0 0
ce_ro_ 1999_10_09_556_f 902 3 52 0 28 -45 -45 NORESP 0 3 /Users/lab/Documents/experiments/2019/surprise/stim/4_noeffect.mov 2999 14-May-2019 16:39:32 1.354093e+02 2.953210e+02 0 1
ce_ro_ 1999_10_09_556_f 902 3 53 0 14 45 -45 right 1 3 /Users/lab/Documents/experiments/2019/surprise/stim/2_noeffect.mov 545 14-May-2019 16:39:35 -3.893117e+02 -4.158575e+02 0 0
ce_ro_ 1999_10_09_556_f 902 3 54 0 10 45 -45 right 1 3 /Users/lab/Documents/experiments/2019/surprise/stim/2_noeffect.mov 478 14-May-2019 16:39:38 -4.335811e+02 3.632153e+02 0 0
ce_ro_ 1999_10_09_556_f 902 3 55 0 33 45 45 right 1 3 /Users/lab/Documents/experiments/2019/surprise/stim/5_noeffect.mov 517 14-May-2019 16:39:41 -1.475347e+01 1.968226e+02 0 0
ce_ro_ 1999_10_09_556_f 902 3 56 0 9 45 45 right 1 3 /Users/lab/Documents/experiments/2019/surprise/stim/2_noeffect.mov 930 14-May-2019 16:40:06 -3.612925e+02 -1.192008e+02 0 1
ce_ro_ 1999_10_09_556_f 902 3 57 0 43 -45 45 NORESP 0 3 /Users/lab/Documents/experiments/2019/surprise/stim/6_noeffect.mov 3000 14-May-2019 16:40:11 -3.762158e+02 4.082021e+02 0 0
ce_ro_ 1999_10_09_556_f 902 3 58 0 1 45 45 right 1 3 /Users/lab/Documents/experiments/2019/surprise/stim/1_noeffect.mov 659 14-May-2019 16:40:14 4.289421e+01 -4.791661e+02 0 0
ce_ro_ 1999_10_09_556_f 902 3 59 0 76 -45 -45 NORESP 0 3 /Users/lab/Documents/experiments/2019/surprise/stim/9_noeffect.mov 2999 14-May-2019 16:40:19 -4.171973e+02 2.583073e+02 0 0
ce_ro_ 1999_10_09_556_f 902 3 60 0 46 45 -45 right 1 3 /Users/lab/Documents/experiments/2019/surprise/stim/6_noeffect.mov 765 14-May-2019 16:40:34 -1.459832e+02 7.374807e+01 0 1
ce_ro_ 1999_10_09_556_f 902 3 61 0 15 -45 45 NORESP 0 3 /Users/lab/Documents/experiments/2019/surprise/stim/2_noeffect.mov 2999 14-May-2019 16:40:39 -2.146869e+02 -1.535449e+02 0 0
ce_ro_ 1999_10_09_556_f 902 3 62 0 73 45 45 right 1 3 /Users/lab/Documents/experiments/2019/surprise/stim/9_noeffect.mov 571 14-May-2019 16:40:42 2.074000e+02 3.871525e+02 0 0
ce_ro_ 1999_10_09_556_f 902 3 63 0 68 -45 -45 NORESP 0 3 /Users/lab/Documents/experiments/2019/surprise/stim/9_noeffect.mov 2999 14-May-2019 16:40:48 -1.036505e+02 1.084084e+02 0 0
ce_ro_ 1999_10_09_556_f 902 3 64 0 17 45 45 right 1 3 /Users/lab/Documents/experiments/2019/surprise/stim/2_noeffect.mov 686 14-May-2019 16:41:12 -9.172512e+01 3.136683e+02 0 1
ce_ro_ 1999_10_09_556_f 902 3 65 0 64 -45 -45 NORESP 0 3 /Users/lab/Documents/experiments/2019/surprise/stim/8_noeffect.mov 2999 14-May-2019 16:41:18 -3.581264e+02 4.440907e+02 0 0
ce_ro_ 1999_10_09_556_f 902 3 66 0 79 -45 45 NORESP 0 3 /Users/lab/Documents/experiments/2019/surprise/stim/9_noeffect.mov 3000 14-May-2019 16:41:23 3.304027e+02 1.967884e+02 0 0
ce_ro_ 1999_10_09_556_f 902 3 67 0 49 45 45 right 1 3 /Users/lab/Documents/experiments/2019/surprise/stim/7_noeffect.mov 725 14-May-2019 16:41:26 -8.790525e+01 -9.775089e+01 0 0
ce_ro_ 1999_10_09_556_f 902 3 68 0 60 -45 -45 NORESP 0 3 /Users/lab/Documents/experiments/2019/surprise/stim/8_noeffect.mov 2999 14-May-2019 16:41:49 1.740504e+00 -9.459444e+01 0 1
ce_ro_ 1999_10_09_556_f 902 3 69 0 23 -45 45 NORESP 0 3 /Users/lab/Documents/experiments/2019/surprise/stim/3_noeffect.mov 2999 14-May-2019 16:41:54 4.343672e+02 2.458309e+02 0 0
ce_ro_ 1999_10_09_556_f 902 3 70 0 57 45 45 right 1 3 /Users/lab/Documents/experiments/2019/surprise/stim/8_noeffect.mov 591 14-May-2019 16:41:57 -4.875266e+02 -5.570916e+01 0 0
ce_ro_ 1999_10_09_556_f 902 3 71 0 13 45 45 right 1 3 /Users/lab/Documents/experiments/2019/surprise/stim/2_noeffect.mov 685 14-May-2019 16:42:00 -2.673952e+02 -1.108504e+02 0 0
ce_ro_ 1999_10_09_556_f 902 3 72 0 55 -45 45 NORESP 0 3 /Users/lab/Documents/experiments/2019/surprise/stim/7_noeffect.mov 2999 14-May-2019 16:42:22 4.675547e+02 2.010743e+02 0 1
ce_ro_ 1999_10_09_556_f 902 3 73 0 67 -45 45 NORESP 0 3 /Users/lab/Documents/experiments/2019/surprise/stim/9_noeffect.mov 2999 14-May-2019 16:42:27 -2.119210e+02 -4.734656e+02 0 0
ce_ro_ 1999_10_09_556_f 902 3 74 0 3 -45 45 NORESP 0 3 /Users/lab/Documents/experiments/2019/surprise/stim/1_noeffect.mov 2999 14-May-2019 16:42:32 -4.547497e+02 1.400660e+02 0 0
ce_ro_ 1999_10_09_556_f 902 3 75 0 12 -45 -45 NORESP 0 3 /Users/lab/Documents/experiments/2019/surprise/stim/2_noeffect.mov 2999 14-May-2019 16:42:37 -2.632001e+01 4.516662e+02 0 0
ce_ro_ 1999_10_09_556_f 902 3 76 0 61 45 45 right 1 3 /Users/lab/Documents/experiments/2019/surprise/stim/8_noeffect.mov 819 14-May-2019 16:42:58 -2.198177e+02 -2.629977e+02 0 1
ce_ro_ 1999_10_09_556_f 902 3 77 0 30 45 -45 right 1 3 /Users/lab/Documents/experiments/2019/surprise/stim/4_noeffect.mov 713 14-May-2019 16:43:01 -5.018309e+01 -2.755306e+02 0 0
ce_ro_ 1999_10_09_556_f 902 3 78 0 31 -45 45 NORESP 0 3 /Users/lab/Documents/experiments/2019/surprise/stim/4_noeffect.mov 2999 14-May-2019 16:43:07 -2.796359e+02 -2.010554e+02 0 0
ce_ro_ 1999_10_09_556_f 902 3 79 0 22 45 -45 right 1 3 /Users/lab/Documents/experiments/2019/surprise/stim/3_noeffect.mov 566 14-May-2019 16:43:10 -1.717041e+02 -4.674677e+01 0 0
ce_ro_ 1999_10_09_556_f 902 3 80 0 18 45 -45 right 1 3 /Users/lab/Documents/experiments/2019/surprise/stim/2_noeffect.mov 459 14-May-2019 16:43:13 -2.110185e+02 1.233613e+02 0 0
