subject_name subjectNumber iTrial unshuffled_trial targetOrientation flankersOrientation response correct onscreen_stim_duration magicShows rt date time_of_day deltaX deltaY surpriseClip isClipTrial
12lc23_f26 6 1 51 -45 45 NORESP 0 5.000000e-01 /Users/lab/Documents/surprise_project/surprise/stim/7_effect.mov 3015 06-Mar-2018 09:55:29 -2.680477e+02 -1.857345e+02 1 1
12lc23_f26 6 2 28 -45 -45 left 1 5.000000e-01 /Users/lab/Documents/surprise_project/surprise/stim/4_effect.mov 649 06-Mar-2018 09:55:32 3.143789e+02 -4.523211e+02 1 0
12lc23_f26 6 3 23 -45 45 left 1 5.000000e-01 /Users/lab/Documents/surprise_project/surprise/stim/3_noeffect.mov 913 06-Mar-2018 09:55:35 1.983686e+01 -3.246999e+02 0 0
12lc23_f26 6 4 20 -45 -45 left 1 5.000000e-01 /Users/lab/Documents/surprise_project/surprise/stim/3_effect.mov 747 06-Mar-2018 09:55:54 4.303934e+02 4.231981e+02 1 1
12lc23_f26 6 5 18 45 -45 right 1 5.000000e-01 /Users/lab/Documents/surprise_project/surprise/stim/3_effect.mov 750 06-Mar-2018 09:55:57 -2.065569e+02 8.134859e+01 1 0
12lc23_f26 6 6 59 -45 45 left 1 5.000000e-01 /Users/lab/Documents/surprise_project/surprise/stim/8_effect.mov 868 06-Mar-2018 09:56:00 -2.277256e+02 -3.094495e+02 1 0
12lc23_f26 6 7 21 45 45 right 1 5.000000e-01 /Users/lab/Documents/surprise_project/surprise/stim/3_noeffect.mov 632 06-Mar-2018 09:56:03 -4.016709e+01 -3.704034e+02 0 0
12lc23_f26 6 8 22 45 -45 right 1 5.000000e-01 /Users/lab/Documents/surprise_project/surprise/stim/3_noeffect.mov 514 06-Mar-2018 09:56:21 -1.838303e+02 -2.139289e+02 0 1
12lc23_f26 6 9 2 45 -45 right 1 5.000000e-01 /Users/lab/Documents/surprise_project/surprise/stim/1_effect.mov 551 06-Mar-2018 09:56:24 -2.943628e+02 3.906001e+02 1 0
12lc23_f26 6 10 6 45 -45 right 1 5.000000e-01 /Users/lab/Documents/surprise_project/surprise/stim/1_noeffect.mov 486 06-Mar-2018 09:56:27 -3.210163e+02 3.563155e+02 1 0
12lc23_f26 6 11 65 45 45 right 1 5.000000e-01 /Users/lab/Documents/surprise_project/surprise/stim/9_effect.mov 567 06-Mar-2018 09:56:30 -2.792409e+02 -2.618255e+01 1 0
12lc23_f26 6 12 7 -45 45 left 1 5.000000e-01 /Users/lab/Documents/surprise_project/surprise/stim/1_noeffect.mov 847 06-Mar-2018 09:56:55 -4.773169e+02 2.057870e+02 1 1
12lc23_f26 6 13 9 45 45 right 1 5.000000e-01 /Users/lab/Documents/surprise_project/surprise/stim/2_effect.mov 387 06-Mar-2018 09:56:57 1.832855e+02 -1.415384e+02 1 0
12lc23_f26 6 14 66 45 -45 right 1 5.000000e-01 /Users/lab/Documents/surprise_project/surprise/stim/9_effect.mov 534 06-Mar-2018 09:57:00 3.256200e+02 -3.996798e+02 1 0
12lc23_f26 6 15 63 -45 45 left 1 5.000000e-01 /Users/lab/Documents/surprise_project/surprise/stim/8_noeffect.mov 533 06-Mar-2018 09:57:03 2.294982e+02 2.258307e+02 0 0
12lc23_f26 6 16 32 -45 -45 left 1 5.000000e-01 /Users/lab/Documents/surprise_project/surprise/stim/4_noeffect.mov 645 06-Mar-2018 09:57:20 -3.236206e+02 5.105383e+00 0 1
12lc23_f26 6 17 11 -45 45 left 1 5.000000e-01 /Users/lab/Documents/surprise_project/surprise/stim/2_effect.mov 470 06-Mar-2018 09:57:23 6.698379e+01 -8.109738e+01 1 0
12lc23_f26 6 18 19 -45 45 left 1 5.000000e-01 /Users/lab/Documents/surprise_project/surprise/stim/3_effect.mov 409 06-Mar-2018 09:57:26 -1.128283e+02 -1.144775e+02 1 0
12lc23_f26 6 19 27 -45 45 left 1 5.000000e-01 /Users/lab/Documents/surprise_project/surprise/stim/4_effect.mov 474 06-Mar-2018 09:57:29 3.589355e+02 -4.131156e+02 1 0
12lc23_f26 6 20 69 45 45 right 1 5.000000e-01 /Users/lab/Documents/surprise_project/surprise/stim/9_noeffect.mov 491 06-Mar-2018 09:57:50 2.707339e+02 3.216672e+02 0 1
12lc23_f26 6 21 68 -45 -45 left 1 5.000000e-01 /Users/lab/Documents/surprise_project/surprise/stim/9_effect.mov 534 06-Mar-2018 09:57:53 2.305802e+02 -1.001509e+02 1 0
12lc23_f26 6 22 48 -45 -45 left 1 5.000000e-01 /Users/lab/Documents/surprise_project/surprise/stim/6_noeffect.mov 391 06-Mar-2018 09:57:56 8.013653e+01 4.365244e+01 0 0
12lc23_f26 6 23 30 45 -45 right 1 5.000000e-01 /Users/lab/Documents/surprise_project/surprise/stim/4_noeffect.mov 518 06-Mar-2018 09:57:59 -3.379512e+02 -3.320064e+02 0 0
12lc23_f26 6 24 47 -45 45 left 1 5.000000e-01 /Users/lab/Documents/surprise_project/surprise/stim/6_noeffect.mov 696 06-Mar-2018 09:58:13 3.527295e+01 -9.130171e+01 0 1
12lc23_f26 6 25 50 45 -45 right 1 5.000000e-01 /Users/lab/Documents/surprise_project/surprise/stim/7_effect.mov 567 06-Mar-2018 09:58:16 -2.979373e+02 -4.628295e+02 1 0
12lc23_f26 6 26 44 -45 -45 left 1 5.000000e-01 /Users/lab/Documents/surprise_project/surprise/stim/6_effect.mov 584 06-Mar-2018 09:58:19 4.506126e+02 -3.191812e+02 1 0
12lc23_f26 6 27 42 45 -45 right 1 5.000000e-01 /Users/lab/Documents/surprise_project/surprise/stim/6_effect.mov 481 06-Mar-2018 09:58:22 -2.489495e+02 3.942387e+02 1 0
12lc23_f26 6 28 40 -45 -45 left 1 5.000000e-01 /Users/lab/Documents/surprise_project/surprise/stim/5_noeffect.mov 962 06-Mar-2018 09:58:39 2.642427e+02 5.403371e+01 0 1
12lc23_f26 6 29 12 -45 -45 left 1 5.000000e-01 /Users/lab/Documents/surprise_project/surprise/stim/2_effect.mov 448 06-Mar-2018 09:58:42 -6.183994e+01 -3.884998e+02 1 0
12lc23_f26 6 30 41 45 45 right 1 5.000000e-01 /Users/lab/Documents/surprise_project/surprise/stim/6_effect.mov 460 06-Mar-2018 09:58:44 2.573118e+02 -5.998998e+01 1 0
12lc23_f26 6 31 4 -45 -45 left 1 5.000000e-01 /Users/lab/Documents/surprise_project/surprise/stim/1_effect.mov 451 06-Mar-2018 09:58:47 1.624479e+02 2.460263e+02 1 0
12lc23_f26 6 32 38 45 -45 right 1 5.000000e-01 /Users/lab/Documents/surprise_project/surprise/stim/5_noeffect.mov 564 06-Mar-2018 09:59:04 -3.417972e+02 2.986802e+02 0 1
12lc23_f26 6 33 43 -45 45 left 1 5.000000e-01 /Users/lab/Documents/surprise_project/surprise/stim/6_effect.mov 667 06-Mar-2018 09:59:07 -6.500885e+00 -3.921147e+02 1 0
12lc23_f26 6 34 13 45 45 right 1 5.000000e-01 /Users/lab/Documents/surprise_project/surprise/stim/2_noeffect.mov 534 06-Mar-2018 09:59:10 -4.054533e+02 2.467722e+00 0 0
12lc23_f26 6 35 25 45 45 right 1 5.000000e-01 /Users/lab/Documents/surprise_project/surprise/stim/4_effect.mov 519 06-Mar-2018 09:59:12 -3.728474e+02 -3.104372e+02 1 0
12lc23_f26 6 36 70 45 -45 right 1 5.000000e-01 /Users/lab/Documents/surprise_project/surprise/stim/9_noeffect.mov 596 06-Mar-2018 09:59:34 -1.837690e+02 -2.809250e+02 0 1
12lc23_f26 6 37 64 -45 -45 left 1 5.000000e-01 /Users/lab/Documents/surprise_project/surprise/stim/8_noeffect.mov 492 06-Mar-2018 09:59:37 2.580426e+02 -4.233487e+02 0 0
12lc23_f26 6 38 29 45 45 right 1 5.000000e-01 /Users/lab/Documents/surprise_project/surprise/stim/4_noeffect.mov 566 06-Mar-2018 09:59:40 1.609007e+02 -7.778117e+01 0 0
12lc23_f26 6 39 34 45 -45 right 1 5.000000e-01 /Users/lab/Documents/surprise_project/surprise/stim/5_effect.mov 550 06-Mar-2018 09:59:43 -2.716291e+02 -2.168474e+02 1 0
12lc23_f26 6 40 14 45 -45 right 1 5.000000e-01 /Users/lab/Documents/surprise_project/surprise/stim/2_noeffect.mov 1135 06-Mar-2018 10:00:08 4.235005e+02 1.940951e+02 0 1
12lc23_f26 6 41 10 45 -45 right 1 5.000000e-01 /Users/lab/Documents/surprise_project/surprise/stim/2_effect.mov 598 06-Mar-2018 10:00:11 3.926325e+02 -1.440600e+02 1 0
12lc23_f26 6 42 54 45 -45 right 1 5.000000e-01 /Users/lab/Documents/surprise_project/surprise/stim/7_noeffect.mov 551 06-Mar-2018 10:00:14 1.879600e+02 4.082042e+02 0 0
12lc23_f26 6 43 1 45 45 right 1 5.000000e-01 /Users/lab/Documents/surprise_project/surprise/stim/1_effect.mov 618 06-Mar-2018 10:00:17 -1.875395e+02 -2.981315e+02 1 0
12lc23_f26 6 44 60 -45 -45 left 1 5.000000e-01 /Users/lab/Documents/surprise_project/surprise/stim/8_effect.mov 1549 06-Mar-2018 10:00:38 -1.422691e+02 4.996656e+02 1 1
12lc23_f26 6 45 45 45 45 right 1 5.000000e-01 /Users/lab/Documents/surprise_project/surprise/stim/6_noeffect.mov 950 06-Mar-2018 10:00:42 -1.837564e+02 -2.999622e+02 0 0
12lc23_f26 6 46 15 -45 45 left 1 5.000000e-01 /Users/lab/Documents/surprise_project/surprise/stim/2_noeffect.mov 734 06-Mar-2018 10:00:45 -2.325240e+02 -2.414901e+02 0 0
12lc23_f26 6 47 24 -45 -45 left 1 5.000000e-01 /Users/lab/Documents/surprise_project/surprise/stim/3_noeffect.mov 703 06-Mar-2018 10:00:48 -1.312804e+02 -7.226595e+01 0 0
12lc23_f26 6 48 57 45 45 right 1 5.000000e-01 /Users/lab/Documents/surprise_project/surprise/stim/8_effect.mov 1581 06-Mar-2018 10:01:09 1.181776e+02 1.332186e+02 1 1
12lc23_f26 6 49 36 -45 -45 left 1 5.000000e-01 /Users/lab/Documents/surprise_project/surprise/stim/5_effect.mov 1199 06-Mar-2018 10:01:13 -1.968629e+02 4.398384e+02 1 0
12lc23_f26 6 50 67 -45 45 left 1 5.000000e-01 /Users/lab/Documents/surprise_project/surprise/stim/9_effect.mov 1367 06-Mar-2018 10:01:17 -3.383734e+02 -3.872812e+02 1 0
12lc23_f26 6 51 46 45 -45 right 1 5.000000e-01 /Users/lab/Documents/surprise_project/surprise/stim/6_noeffect.mov 917 06-Mar-2018 10:01:20 -1.295088e+02 -2.092719e+02 0 0
12lc23_f26 6 52 56 -45 -45 left 1 5.000000e-01 /Users/lab/Documents/surprise_project/surprise/stim/7_noeffect.mov 498 06-Mar-2018 10:01:39 2.644884e+02 -3.999338e+02 0 1
12lc23_f26 6 53 36 -45 45 left 1 5.000000e-01 /Users/lab/Documents/surprise_project/surprise/stim/5_effect.mov 584 06-Mar-2018 10:01:42 -3.814362e+02 -4.695551e+01 1 0
12lc23_f26 6 54 52 -45 -45 left 1 5.000000e-01 /Users/lab/Documents/surprise_project/surprise/stim/7_effect.mov 378 06-Mar-2018 10:01:44 -2.890340e+02 -3.702055e+02 1 0
12lc23_f26 6 55 58 45 -45 right 1 5.000000e-01 /Users/lab/Documents/surprise_project/surprise/stim/8_effect.mov 476 06-Mar-2018 10:01:47 1.179504e+02 -3.780878e+02 1 0
12lc23_f26 6 56 49 45 45 right 1 5.000000e-01 /Users/lab/Documents/surprise_project/surprise/stim/7_effect.mov 1281 06-Mar-2018 10:02:07 -2.458498e+02 3.189462e+01 1 1
12lc23_f26 6 57 8 -45 -45 left 1 5.000000e-01 /Users/lab/Documents/surprise_project/surprise/stim/1_noeffect.mov 1184 06-Mar-2018 10:02:10 -3.386077e+02 3.599394e+02 1 0
12lc23_f26 6 58 61 45 45 right 1 5.000000e-01 /Users/lab/Documents/surprise_project/surprise/stim/8_noeffect.mov 667 06-Mar-2018 10:02:13 -1.624976e+01 3.385517e+02 0 0
12lc23_f26 6 59 62 45 -45 right 1 5.000000e-01 /Users/lab/Documents/surprise_project/surprise/stim/8_noeffect.mov 850 06-Mar-2018 10:02:17 7.984073e+01 -3.909860e+02 0 0
12lc23_f26 6 60 16 -45 -45 left 1 5.000000e-01 /Users/lab/Documents/surprise_project/surprise/stim/2_noeffect.mov 1497 06-Mar-2018 10:02:42 3.937509e+02 3.577964e+02 0 1
12lc23_f26 6 61 3 -45 45 left 1 5.000000e-01 /Users/lab/Documents/surprise_project/surprise/stim/1_effect.mov 1017 06-Mar-2018 10:02:45 3.233293e+02 -8.078740e+01 1 0
12lc23_f26 6 62 55 -45 45 left 1 5.000000e-01 /Users/lab/Documents/surprise_project/surprise/stim/7_noeffect.mov 984 06-Mar-2018 10:02:49 3.714111e+02 -1.814699e+02 0 0
12lc23_f26 6 63 33 45 45 right 1 5.000000e-01 /Users/lab/Documents/surprise_project/surprise/stim/5_effect.mov 1152 06-Mar-2018 10:02:52 -1.171581e+02 4.154157e+02 1 0
12lc23_f26 6 64 26 45 -45 right 1 5.000000e-01 /Users/lab/Documents/surprise_project/surprise/stim/4_effect.mov 1561 06-Mar-2018 10:03:10 -2.628897e+02 -1.471697e+01 1 1
12lc23_f26 6 65 53 45 45 right 1 5.000000e-01 /Users/lab/Documents/surprise_project/surprise/stim/7_noeffect.mov 1118 06-Mar-2018 10:03:14 4.652218e+02 -3.174051e+02 0 0
12lc23_f26 6 66 71 -45 45 left 1 5.000000e-01 /Users/lab/Documents/surprise_project/surprise/stim/9_noeffect.mov 968 06-Mar-2018 10:03:17 3.301827e+02 3.783620e+02 0 0
12lc23_f26 6 67 39 -45 45 left 1 5.000000e-01 /Users/lab/Documents/surprise_project/surprise/stim/5_noeffect.mov 1015 06-Mar-2018 10:03:20 -2.940186e+02 -3.532944e+02 0 0
12lc23_f26 6 68 37 45 45 right 1 5.000000e-01 /Users/lab/Documents/surprise_project/surprise/stim/5_noeffect.mov 861 06-Mar-2018 10:03:37 2.879601e+02 9.789676e+01 0 1
12lc23_f26 6 69 31 -45 45 left 1 5.000000e-01 /Users/lab/Documents/surprise_project/surprise/stim/4_noeffect.mov 436 06-Mar-2018 10:03:40 -7.821691e+01 -2.024856e+02 0 0
12lc23_f26 6 70 5 45 45 right 1 5.000000e-01 /Users/lab/Documents/surprise_project/surprise/stim/1_noeffect.mov 536 06-Mar-2018 10:03:43 -1.305114e+02 -2.535271e+02 1 0
12lc23_f26 6 71 72 -45 -45 left 1 5.000000e-01 /Users/lab/Documents/surprise_project/surprise/stim/9_noeffect.mov 617 06-Mar-2018 10:03:46 2.973677e+02 7.668312e+01 0 0
12lc23_f26 6 72 17 45 45 right 1 5.000000e-01 /Users/lab/Documents/surprise_project/surprise/stim/3_effect.mov 417 06-Mar-2018 10:03:48 -3.933024e+02 1.583324e+02 1 0
