subject_name subjectNumber iTrial unshuffled_trial targetOrientation flankersOrientation response correct onscreen_stim_duration magicShows rt date time_of_day deltaX deltaY surpriseClip isClipTrial
60am28_f19 381 1 7 -45 45 left 1 5.000000e-01 /Users/lab/Documents/surprise_project/surprise/stim/1_noeffect.mov 794 03-Apr-2018 10:34:55 -2.473550e+02 -4.909571e+02 1 1
60am28_f19 381 2 27 -45 45 left 1 5.000000e-01 /Users/lab/Documents/surprise_project/surprise/stim/4_effect.mov 666 03-Apr-2018 10:34:58 1.261922e+02 2.542502e+02 1 0
60am28_f19 381 3 37 45 45 left 0 5.000000e-01 /Users/lab/Documents/surprise_project/surprise/stim/5_noeffect.mov 747 03-Apr-2018 10:35:01 -4.605898e+02 2.466450e+02 0 0
60am28_f19 381 4 64 -45 -45 left 1 5.000000e-01 /Users/lab/Documents/surprise_project/surprise/stim/8_noeffect.mov 1213 03-Apr-2018 10:35:23 1.381910e+02 -3.845651e+02 0 1
60am28_f19 381 5 40 -45 -45 left 1 5.000000e-01 /Users/lab/Documents/surprise_project/surprise/stim/5_noeffect.mov 1082 03-Apr-2018 10:35:26 -2.449102e+02 -2.104593e+02 0 0
60am28_f19 381 6 47 -45 45 left 1 5.000000e-01 /Users/lab/Documents/surprise_project/surprise/stim/6_noeffect.mov 679 03-Apr-2018 10:35:29 3.736555e+01 -4.990452e+02 0 0
60am28_f19 381 7 69 45 45 right 1 5.000000e-01 /Users/lab/Documents/surprise_project/surprise/stim/9_noeffect.mov 746 03-Apr-2018 10:35:32 4.509648e+01 2.472243e+02 0 0
60am28_f19 381 8 61 45 45 right 1 5.000000e-01 /Users/lab/Documents/surprise_project/surprise/stim/8_noeffect.mov 813 03-Apr-2018 10:35:53 -3.880452e+02 -1.562119e+02 0 1
60am28_f19 381 9 53 45 45 right 1 5.000000e-01 /Users/lab/Documents/surprise_project/surprise/stim/7_noeffect.mov 1014 03-Apr-2018 10:35:56 3.151161e+02 -7.006999e+01 0 0
60am28_f19 381 10 62 45 -45 right 1 5.000000e-01 /Users/lab/Documents/surprise_project/surprise/stim/8_noeffect.mov 696 03-Apr-2018 10:35:59 -2.427518e+02 -2.700366e+02 0 0
60am28_f19 381 11 4 -45 -45 left 1 5.000000e-01 /Users/lab/Documents/surprise_project/surprise/stim/1_effect.mov 983 03-Apr-2018 10:36:03 -3.554327e+02 3.473157e+02 1 0
60am28_f19 381 12 24 -45 -45 left 1 5.000000e-01 /Users/lab/Documents/surprise_project/surprise/stim/3_noeffect.mov 728 03-Apr-2018 10:36:21 -1.689870e+02 4.752413e+02 0 1
60am28_f19 381 13 56 -45 -45 left 1 5.000000e-01 /Users/lab/Documents/surprise_project/surprise/stim/7_noeffect.mov 1131 03-Apr-2018 10:36:25 -2.473067e+01 3.731271e+02 0 0
60am28_f19 381 14 52 -45 -45 left 1 5.000000e-01 /Users/lab/Documents/surprise_project/surprise/stim/7_effect.mov 912 03-Apr-2018 10:36:28 -4.958707e+01 2.694921e+02 1 0
60am28_f19 381 15 68 -45 -45 left 1 5.000000e-01 /Users/lab/Documents/surprise_project/surprise/stim/9_effect.mov 929 03-Apr-2018 10:36:31 4.884439e+02 6.653759e+01 1 0
60am28_f19 381 16 38 45 -45 right 1 5.000000e-01 /Users/lab/Documents/surprise_project/surprise/stim/5_noeffect.mov 903 03-Apr-2018 10:36:48 4.447278e+02 -2.604352e+02 0 1
60am28_f19 381 17 30 45 -45 right 1 5.000000e-01 /Users/lab/Documents/surprise_project/surprise/stim/4_noeffect.mov 733 03-Apr-2018 10:36:51 -2.479391e+02 -8.690090e+01 0 0
60am28_f19 381 18 9 45 45 right 1 5.000000e-01 /Users/lab/Documents/surprise_project/surprise/stim/2_effect.mov 712 03-Apr-2018 10:36:54 -7.686882e+00 -1.291590e+02 1 0
60am28_f19 381 19 66 45 -45 right 1 5.000000e-01 /Users/lab/Documents/surprise_project/surprise/stim/9_effect.mov 699 03-Apr-2018 10:36:57 4.349960e+02 -1.186604e+02 1 0
60am28_f19 381 20 70 45 -45 right 1 5.000000e-01 /Users/lab/Documents/surprise_project/surprise/stim/9_noeffect.mov 778 03-Apr-2018 10:37:19 -7.318481e+01 -1.617775e+02 0 1
60am28_f19 381 21 51 -45 45 left 1 5.000000e-01 /Users/lab/Documents/surprise_project/surprise/stim/7_effect.mov 665 03-Apr-2018 10:37:22 -3.490284e+02 -3.414904e+01 1 0
60am28_f19 381 22 29 45 45 right 1 5.000000e-01 /Users/lab/Documents/surprise_project/surprise/stim/4_noeffect.mov 712 03-Apr-2018 10:37:25 -2.490390e+02 -3.647268e+02 0 0
60am28_f19 381 23 34 45 -45 right 1 5.000000e-01 /Users/lab/Documents/surprise_project/surprise/stim/5_effect.mov 681 03-Apr-2018 10:37:28 1.056824e+02 5.896293e+01 1 0
60am28_f19 381 24 17 45 45 right 1 5.000000e-01 /Users/lab/Documents/surprise_project/surprise/stim/3_effect.mov 1235 03-Apr-2018 10:37:47 -4.337478e+02 -3.402366e+02 1 1
60am28_f19 381 25 39 -45 45 left 1 5.000000e-01 /Users/lab/Documents/surprise_project/surprise/stim/5_noeffect.mov 645 03-Apr-2018 10:37:50 -2.611238e+02 2.270611e+02 0 0
60am28_f19 381 26 23 -45 45 left 1 5.000000e-01 /Users/lab/Documents/surprise_project/surprise/stim/3_noeffect.mov 697 03-Apr-2018 10:37:53 -1.280144e-01 2.092535e+02 0 0
60am28_f19 381 27 21 45 45 right 1 5.000000e-01 /Users/lab/Documents/surprise_project/surprise/stim/3_noeffect.mov 929 03-Apr-2018 10:37:56 -2.518180e+01 -4.006946e+02 0 0
60am28_f19 381 28 59 -45 45 left 1 5.000000e-01 /Users/lab/Documents/surprise_project/surprise/stim/8_effect.mov 713 03-Apr-2018 10:38:17 -4.025378e+01 -1.461946e+01 1 1
60am28_f19 381 29 14 45 -45 right 1 5.000000e-01 /Users/lab/Documents/surprise_project/surprise/stim/2_noeffect.mov 666 03-Apr-2018 10:38:20 -1.122380e+02 -4.922662e+02 0 0
60am28_f19 381 30 22 45 -45 right 1 5.000000e-01 /Users/lab/Documents/surprise_project/surprise/stim/3_noeffect.mov 664 03-Apr-2018 10:38:23 4.822596e+02 3.210059e+01 0 0
60am28_f19 381 31 16 -45 -45 left 1 5.000000e-01 /Users/lab/Documents/surprise_project/surprise/stim/2_noeffect.mov 1231 03-Apr-2018 10:38:27 5.104024e+01 2.026683e+02 0 0
60am28_f19 381 32 63 -45 45 left 1 5.000000e-01 /Users/lab/Documents/surprise_project/surprise/stim/8_noeffect.mov 694 03-Apr-2018 10:38:47 1.733044e+02 6.879467e+01 0 1
60am28_f19 381 33 15 -45 45 left 1 5.000000e-01 /Users/lab/Documents/surprise_project/surprise/stim/2_noeffect.mov 679 03-Apr-2018 10:38:51 -4.831104e+02 1.550046e+02 0 0
60am28_f19 381 34 1 45 45 right 1 5.000000e-01 /Users/lab/Documents/surprise_project/surprise/stim/1_effect.mov 879 03-Apr-2018 10:38:54 -2.777352e+02 -3.804600e+02 1 0
60am28_f19 381 35 44 -45 -45 left 1 5.000000e-01 /Users/lab/Documents/surprise_project/surprise/stim/6_effect.mov 780 03-Apr-2018 10:38:57 2.128974e+02 4.045423e+01 1 0
60am28_f19 381 36 55 -45 45 left 1 5.000000e-01 /Users/lab/Documents/surprise_project/surprise/stim/7_noeffect.mov 751 03-Apr-2018 10:39:16 2.705443e+02 2.860493e+02 0 1
60am28_f19 381 37 5 45 45 right 1 5.000000e-01 /Users/lab/Documents/surprise_project/surprise/stim/1_noeffect.mov 1012 03-Apr-2018 10:39:19 -4.401250e+02 4.884992e+02 1 0
60am28_f19 381 38 49 45 45 right 1 5.000000e-01 /Users/lab/Documents/surprise_project/surprise/stim/7_effect.mov 795 03-Apr-2018 10:39:22 4.213872e+02 4.342921e+02 1 0
60am28_f19 381 39 65 45 45 right 1 5.000000e-01 /Users/lab/Documents/surprise_project/surprise/stim/9_effect.mov 862 03-Apr-2018 10:39:26 -4.135946e+02 -2.285580e+02 1 0
60am28_f19 381 40 57 45 45 right 1 5.000000e-01 /Users/lab/Documents/surprise_project/surprise/stim/8_effect.mov 811 03-Apr-2018 10:39:47 -1.298208e+01 2.408329e+02 1 1
60am28_f19 381 41 32 -45 -45 left 1 5.000000e-01 /Users/lab/Documents/surprise_project/surprise/stim/4_noeffect.mov 745 03-Apr-2018 10:39:50 3.682662e+01 -3.645581e+02 0 0
60am28_f19 381 42 3 -45 45 left 1 5.000000e-01 /Users/lab/Documents/surprise_project/surprise/stim/1_effect.mov 615 03-Apr-2018 10:39:53 -2.171158e+01 -1.744140e+02 1 0
60am28_f19 381 43 72 -45 -45 left 1 5.000000e-01 /Users/lab/Documents/surprise_project/surprise/stim/9_noeffect.mov 1065 03-Apr-2018 10:39:56 -4.634515e+02 4.735853e+02 0 0
60am28_f19 381 44 31 -45 45 left 1 5.000000e-01 /Users/lab/Documents/surprise_project/surprise/stim/4_noeffect.mov 729 03-Apr-2018 10:40:14 3.074124e+02 2.157101e+02 0 1
60am28_f19 381 45 25 45 45 right 1 5.000000e-01 /Users/lab/Documents/surprise_project/surprise/stim/4_effect.mov 798 03-Apr-2018 10:40:17 4.040282e+02 -2.185776e+02 1 0
60am28_f19 381 46 18 45 -45 right 1 5.000000e-01 /Users/lab/Documents/surprise_project/surprise/stim/3_effect.mov 649 03-Apr-2018 10:40:20 3.809207e+02 1.941503e+02 1 0
60am28_f19 381 47 58 45 -45 right 1 5.000000e-01 /Users/lab/Documents/surprise_project/surprise/stim/8_effect.mov 730 03-Apr-2018 10:40:23 -3.970068e+02 -4.492947e+02 1 0
60am28_f19 381 48 20 -45 -45 left 1 5.000000e-01 /Users/lab/Documents/surprise_project/surprise/stim/3_effect.mov 845 03-Apr-2018 10:40:41 -9.117644e+01 -2.403439e+02 1 1
60am28_f19 381 49 11 -45 45 left 1 5.000000e-01 /Users/lab/Documents/surprise_project/surprise/stim/2_effect.mov 583 03-Apr-2018 10:40:44 -1.003248e+02 6.932732e+01 1 0
60am28_f19 381 50 46 45 -45 right 1 5.000000e-01 /Users/lab/Documents/surprise_project/surprise/stim/6_noeffect.mov 749 03-Apr-2018 10:40:47 -4.812003e+02 2.164277e+02 0 0
60am28_f19 381 51 36 -45 -45 left 1 5.000000e-01 /Users/lab/Documents/surprise_project/surprise/stim/5_effect.mov 999 03-Apr-2018 10:40:51 6.489221e+01 4.922487e+02 1 0
60am28_f19 381 52 6 45 -45 right 1 5.000000e-01 /Users/lab/Documents/surprise_project/surprise/stim/1_noeffect.mov 729 03-Apr-2018 10:41:15 3.166125e+01 1.190391e+02 1 1
60am28_f19 381 53 19 -45 45 left 1 5.000000e-01 /Users/lab/Documents/surprise_project/surprise/stim/3_effect.mov 679 03-Apr-2018 10:41:18 3.631385e+02 2.561005e+01 1 0
60am28_f19 381 54 8 -45 -45 left 1 5.000000e-01 /Users/lab/Documents/surprise_project/surprise/stim/1_noeffect.mov 679 03-Apr-2018 10:41:21 1.280656e+02 2.440834e+02 1 0
60am28_f19 381 55 41 45 45 right 1 5.000000e-01 /Users/lab/Documents/surprise_project/surprise/stim/6_effect.mov 865 03-Apr-2018 10:41:25 -3.141166e+02 1.013112e+02 1 0
60am28_f19 381 56 71 -45 45 left 1 5.000000e-01 /Users/lab/Documents/surprise_project/surprise/stim/9_noeffect.mov 729 03-Apr-2018 10:41:46 1.976323e+02 1.255217e+02 0 1
60am28_f19 381 57 28 -45 -45 left 1 5.000000e-01 /Users/lab/Documents/surprise_project/surprise/stim/4_effect.mov 998 03-Apr-2018 10:41:50 -1.440673e+02 2.401244e+02 1 0
60am28_f19 381 58 50 45 -45 right 1 5.000000e-01 /Users/lab/Documents/surprise_project/surprise/stim/7_effect.mov 698 03-Apr-2018 10:41:53 -3.436802e+02 -4.331912e+02 1 0
60am28_f19 381 59 67 -45 45 left 1 5.000000e-01 /Users/lab/Documents/surprise_project/surprise/stim/9_effect.mov 582 03-Apr-2018 10:41:56 -1.759145e+02 -3.349649e+02 1 0
60am28_f19 381 60 48 -45 -45 left 1 5.000000e-01 /Users/lab/Documents/surprise_project/surprise/stim/6_noeffect.mov 778 03-Apr-2018 10:42:11 1.242371e+02 -2.521639e+01 0 1
60am28_f19 381 61 36 -45 45 left 1 5.000000e-01 /Users/lab/Documents/surprise_project/surprise/stim/5_effect.mov 699 03-Apr-2018 10:42:14 -2.605308e+02 -5.672289e+01 1 0
60am28_f19 381 62 13 45 45 right 1 5.000000e-01 /Users/lab/Documents/surprise_project/surprise/stim/2_noeffect.mov 699 03-Apr-2018 10:42:17 -2.857253e+02 -2.737426e+02 0 0
60am28_f19 381 63 45 45 45 right 1 5.000000e-01 /Users/lab/Documents/surprise_project/surprise/stim/6_noeffect.mov 712 03-Apr-2018 10:42:20 -2.055057e+02 4.475653e+02 0 0
60am28_f19 381 64 43 -45 45 left 1 5.000000e-01 /Users/lab/Documents/surprise_project/surprise/stim/6_effect.mov 711 03-Apr-2018 10:42:35 4.883632e+02 -4.113885e+02 1 1
60am28_f19 381 65 60 -45 -45 left 1 5.000000e-01 /Users/lab/Documents/surprise_project/surprise/stim/8_effect.mov 1080 03-Apr-2018 10:42:38 1.252855e+02 -1.651247e+02 1 0
60am28_f19 381 66 33 45 45 right 1 5.000000e-01 /Users/lab/Documents/surprise_project/surprise/stim/5_effect.mov 682 03-Apr-2018 10:42:41 -2.948988e+02 1.809528e+02 1 0
60am28_f19 381 67 54 45 -45 right 1 5.000000e-01 /Users/lab/Documents/surprise_project/surprise/stim/7_noeffect.mov 665 03-Apr-2018 10:42:44 -1.133610e+02 2.768210e+02 0 0
60am28_f19 381 68 42 45 -45 right 1 5.000000e-01 /Users/lab/Documents/surprise_project/surprise/stim/6_effect.mov 811 03-Apr-2018 10:43:00 3.765197e+02 4.201164e+02 1 1
60am28_f19 381 69 10 45 -45 right 1 5.000000e-01 /Users/lab/Documents/surprise_project/surprise/stim/2_effect.mov 747 03-Apr-2018 10:43:03 4.863462e+02 -2.643851e+02 1 0
60am28_f19 381 70 12 -45 -45 left 1 5.000000e-01 /Users/lab/Documents/surprise_project/surprise/stim/2_effect.mov 845 03-Apr-2018 10:43:06 3.715186e+01 3.453208e+02 1 0
60am28_f19 381 71 26 45 -45 right 1 5.000000e-01 /Users/lab/Documents/surprise_project/surprise/stim/4_effect.mov 581 03-Apr-2018 10:43:09 3.531236e+00 -2.774876e+02 1 0
60am28_f19 381 72 2 45 -45 right 1 5.000000e-01 /Users/lab/Documents/surprise_project/surprise/stim/1_effect.mov 764 03-Apr-2018 10:43:12 -2.882337e+02 -2.107409e+02 1 0
