subject_name subjectNumber iTrial unshuffled_trial targetOrientation flankersOrientation response correct onscreen_stim_duration magicShows rt date time_of_day deltaX deltaY surpriseClip isClipTrial
18LZ24_M20 1 1 16 -45 -45 right 0 5.000000e-01 /Users/lab/Documents/magic3Definitivo/stim/2_noeffect.mov 627 03-May-2017 11:06:27 -2.847342e+02 5.404869e+01 0 1
18LZ24_M20 1 2 18 45 -45 right 1 5.000000e-01 /Users/lab/Documents/magic3Definitivo/stim/3_effect.mov 529 03-May-2017 11:06:30 -1.863144e+02 4.265555e+02 1 0
18LZ24_M20 1 3 11 -45 45 left 1 5.000000e-01 /Users/lab/Documents/magic3Definitivo/stim/2_effect.mov 513 03-May-2017 11:06:33 -2.313765e+02 -3.110420e+02 1 0
18LZ24_M20 1 4 24 -45 -45 right 0 5.000000e-01 /Users/lab/Documents/magic3Definitivo/stim/3_noeffect.mov 710 03-May-2017 11:06:51 2.574898e+02 -2.221958e+02 0 1
18LZ24_M20 1 5 34 45 -45 right 1 5.000000e-01 /Users/lab/Documents/magic3Definitivo/stim/5_effect.mov 453 03-May-2017 11:06:54 1.641180e+02 -3.128549e+02 1 0
18LZ24_M20 1 6 57 45 45 right 1 5.000000e-01 /Users/lab/Documents/magic3Definitivo/stim/8_effect.mov 793 03-May-2017 11:06:57 2.708815e+02 2.545259e+00 1 0
18LZ24_M20 1 7 53 45 45 right 1 5.000000e-01 /Users/lab/Documents/magic3Definitivo/stim/7_noeffect.mov 443 03-May-2017 11:06:59 3.307298e+02 4.149699e+02 0 0
18LZ24_M20 1 8 25 45 45 right 1 5.000000e-01 /Users/lab/Documents/magic3Definitivo/stim/4_effect.mov 578 03-May-2017 11:07:16 7.731461e+01 -3.110822e+02 1 1
18LZ24_M20 1 9 44 -45 -45 left 1 5.000000e-01 /Users/lab/Documents/magic3Definitivo/stim/6_effect.mov 389 03-May-2017 11:07:19 -4.912805e+02 3.871772e+02 1 0
18LZ24_M20 1 10 20 -45 -45 left 1 5.000000e-01 /Users/lab/Documents/magic3Definitivo/stim/3_effect.mov 471 03-May-2017 11:07:22 -2.948756e+02 2.555379e+02 1 0
18LZ24_M20 1 11 40 -45 -45 right 0 5.000000e-01 /Users/lab/Documents/magic3Definitivo/stim/5_noeffect.mov 544 03-May-2017 11:07:25 1.734766e+02 -1.168970e+02 0 0
18LZ24_M20 1 12 19 -45 45 left 1 5.000000e-01 /Users/lab/Documents/magic3Definitivo/stim/3_effect.mov 676 03-May-2017 11:07:43 -3.165227e+02 -3.675354e+02 1 1
18LZ24_M20 1 13 3 -45 45 left 1 5.000000e-01 /Users/lab/Documents/magic3Definitivo/stim/1_effect.mov 400 03-May-2017 11:07:45 -1.367737e+02 -2.668647e+02 1 0
18LZ24_M20 1 14 64 -45 -45 left 1 5.000000e-01 /Users/lab/Documents/magic3Definitivo/stim/8_noeffect.mov 512 03-May-2017 11:07:48 -2.092080e+02 -4.563667e+02 0 0
18LZ24_M20 1 15 15 -45 45 left 1 5.000000e-01 /Users/lab/Documents/magic3Definitivo/stim/2_noeffect.mov 545 03-May-2017 11:07:51 -1.933166e+02 -1.935216e+02 0 0
18LZ24_M20 1 16 2 45 -45 right 1 5.000000e-01 /Users/lab/Documents/magic3Definitivo/stim/1_effect.mov 544 03-May-2017 11:08:16 1.804165e+02 -3.539508e+02 1 1
18LZ24_M20 1 17 47 -45 45 left 1 5.000000e-01 /Users/lab/Documents/magic3Definitivo/stim/6_noeffect.mov 467 03-May-2017 11:08:19 1.211087e+02 -1.229718e+02 0 0
18LZ24_M20 1 18 26 45 -45 right 1 5.000000e-01 /Users/lab/Documents/magic3Definitivo/stim/4_effect.mov 562 03-May-2017 11:08:21 4.151365e+02 4.991307e+02 1 0
18LZ24_M20 1 19 69 45 45 left 0 5.000000e-01 /Users/lab/Documents/magic3Definitivo/stim/9_noeffect.mov 562 03-May-2017 11:08:24 -2.587379e+02 2.938958e+02 0 0
18LZ24_M20 1 20 63 -45 45 left 1 5.000000e-01 /Users/lab/Documents/magic3Definitivo/stim/8_noeffect.mov 609 03-May-2017 11:08:45 2.104356e+02 -3.033664e+02 0 1
18LZ24_M20 1 21 71 -45 45 left 1 5.000000e-01 /Users/lab/Documents/magic3Definitivo/stim/9_noeffect.mov 546 03-May-2017 11:08:48 2.430979e+02 4.250463e+02 0 0
18LZ24_M20 1 22 5 45 45 right 1 5.000000e-01 /Users/lab/Documents/magic3Definitivo/stim/1_noeffect.mov 391 03-May-2017 11:08:51 -1.933575e+02 -2.856174e+02 1 0
18LZ24_M20 1 23 38 45 -45 right 1 5.000000e-01 /Users/lab/Documents/magic3Definitivo/stim/5_noeffect.mov 473 03-May-2017 11:08:53 6.512295e+01 -3.609225e+02 0 0
18LZ24_M20 1 24 1 45 45 right 1 5.000000e-01 /Users/lab/Documents/magic3Definitivo/stim/1_effect.mov 611 03-May-2017 11:09:18 -2.879807e+02 7.935100e+01 1 1
18LZ24_M20 1 25 27 -45 45 left 1 5.000000e-01 /Users/lab/Documents/magic3Definitivo/stim/4_effect.mov 481 03-May-2017 11:09:21 2.151988e+02 -2.668601e+01 1 0
18LZ24_M20 1 26 70 45 -45 right 1 5.000000e-01 /Users/lab/Documents/magic3Definitivo/stim/9_noeffect.mov 446 03-May-2017 11:09:24 1.597779e+02 3.999369e+02 0 0
18LZ24_M20 1 27 76 -45 -45 left 1 5.000000e-01 /Users/lab/Documents/magic3Definitivo/stim/10_effect.mov 644 03-May-2017 11:09:27 -3.672618e+01 -4.677269e+02 1 0
18LZ24_M20 1 28 66 45 -45 right 1 5.000000e-01 /Users/lab/Documents/magic3Definitivo/stim/9_effect.mov 578 03-May-2017 11:09:48 -1.381487e+02 1.842804e+02 1 1
18LZ24_M20 1 29 31 -45 45 left 1 5.000000e-01 /Users/lab/Documents/magic3Definitivo/stim/4_noeffect.mov 456 03-May-2017 11:09:51 4.463411e+02 3.337104e+02 0 0
18LZ24_M20 1 30 77 45 45 right 1 5.000000e-01 /Users/lab/Documents/magic3Definitivo/stim/10_noeffect.mov 431 03-May-2017 11:09:54 1.240071e+02 -3.874066e+02 0 0
18LZ24_M20 1 31 54 45 -45 right 1 5.000000e-01 /Users/lab/Documents/magic3Definitivo/stim/7_noeffect.mov 489 03-May-2017 11:09:57 -1.964543e+02 2.942517e+00 0 0
18LZ24_M20 1 32 78 45 -45 right 1 5.000000e-01 /Users/lab/Documents/magic3Definitivo/stim/10_noeffect.mov 528 03-May-2017 11:10:10 -2.902158e+02 6.272483e+01 0 1
18LZ24_M20 1 33 17 45 45 right 1 5.000000e-01 /Users/lab/Documents/magic3Definitivo/stim/3_effect.mov 436 03-May-2017 11:10:13 2.523104e+02 -3.745167e+02 1 0
18LZ24_M20 1 34 36 -45 45 left 1 5.000000e-01 /Users/lab/Documents/magic3Definitivo/stim/5_effect.mov 463 03-May-2017 11:10:16 -3.938781e+02 -2.680443e+02 1 0
18LZ24_M20 1 35 8 -45 -45 left 1 5.000000e-01 /Users/lab/Documents/magic3Definitivo/stim/1_noeffect.mov 578 03-May-2017 11:10:19 2.151707e+02 -5.005890e+01 1 0
18LZ24_M20 1 36 13 45 45 right 1 5.000000e-01 /Users/lab/Documents/magic3Definitivo/stim/2_noeffect.mov 561 03-May-2017 11:10:43 3.317829e+02 -3.412753e+02 0 1
18LZ24_M20 1 37 12 -45 -45 left 1 5.000000e-01 /Users/lab/Documents/magic3Definitivo/stim/2_effect.mov 464 03-May-2017 11:10:46 -4.068319e+02 4.878002e+02 1 0
18LZ24_M20 1 38 29 45 45 right 1 5.000000e-01 /Users/lab/Documents/magic3Definitivo/stim/4_noeffect.mov 449 03-May-2017 11:10:49 -3.710831e+01 2.851160e+02 0 0
18LZ24_M20 1 39 80 -45 -45 left 1 5.000000e-01 /Users/lab/Documents/magic3Definitivo/stim/10_noeffect.mov 385 03-May-2017 11:10:52 -2.062718e+02 -2.353226e+02 0 0
18LZ24_M20 1 40 41 45 45 right 1 5.000000e-01 /Users/lab/Documents/magic3Definitivo/stim/6_effect.mov 543 03-May-2017 11:11:06 -3.357182e+02 2.927443e+02 1 1
18LZ24_M20 1 41 43 -45 45 left 1 5.000000e-01 /Users/lab/Documents/magic3Definitivo/stim/6_effect.mov 399 03-May-2017 11:11:09 4.457408e+02 4.331646e+02 1 0
18LZ24_M20 1 42 50 45 -45 right 1 5.000000e-01 /Users/lab/Documents/magic3Definitivo/stim/7_effect.mov 451 03-May-2017 11:11:12 2.782880e+02 1.007372e+02 1 0
18LZ24_M20 1 43 51 -45 45 left 1 5.000000e-01 /Users/lab/Documents/magic3Definitivo/stim/7_effect.mov 365 03-May-2017 11:11:15 -1.861378e+02 2.078518e+01 1 0
18LZ24_M20 1 44 36 -45 -45 left 1 5.000000e-01 /Users/lab/Documents/magic3Definitivo/stim/5_effect.mov 526 03-May-2017 11:11:31 -1.113428e+02 1.928655e+02 1 1
18LZ24_M20 1 45 67 -45 45 left 1 5.000000e-01 /Users/lab/Documents/magic3Definitivo/stim/9_effect.mov 409 03-May-2017 11:11:34 1.581362e+02 -2.514948e+02 1 0
18LZ24_M20 1 46 30 45 -45 right 1 5.000000e-01 /Users/lab/Documents/magic3Definitivo/stim/4_noeffect.mov 437 03-May-2017 11:11:37 4.208316e+02 -4.524509e+02 0 0
18LZ24_M20 1 47 73 45 45 right 1 5.000000e-01 /Users/lab/Documents/magic3Definitivo/stim/10_effect.mov 423 03-May-2017 11:11:39 4.900521e+02 5.798746e+01 1 0
18LZ24_M20 1 48 33 45 45 right 1 5.000000e-01 /Users/lab/Documents/magic3Definitivo/stim/5_effect.mov 528 03-May-2017 11:11:56 3.567435e+02 4.421660e+02 1 1
18LZ24_M20 1 49 72 -45 -45 left 1 5.000000e-01 /Users/lab/Documents/magic3Definitivo/stim/9_noeffect.mov 357 03-May-2017 11:11:59 -3.006337e+02 3.609852e+02 0 0
18LZ24_M20 1 50 49 45 45 right 1 5.000000e-01 /Users/lab/Documents/magic3Definitivo/stim/7_effect.mov 446 03-May-2017 11:12:01 -3.532407e+02 -4.662657e+01 1 0
18LZ24_M20 1 51 23 -45 45 left 1 5.000000e-01 /Users/lab/Documents/magic3Definitivo/stim/3_noeffect.mov 464 03-May-2017 11:12:04 -3.820078e+02 9.023066e+01 0 0
18LZ24_M20 1 52 37 45 45 right 1 5.000000e-01 /Users/lab/Documents/magic3Definitivo/stim/5_noeffect.mov 558 03-May-2017 11:12:20 3.716999e+02 3.287118e+02 0 1
18LZ24_M20 1 53 10 45 -45 right 1 5.000000e-01 /Users/lab/Documents/magic3Definitivo/stim/2_effect.mov 347 03-May-2017 11:12:23 -8.683838e+01 2.691143e+02 1 0
18LZ24_M20 1 54 45 45 45 right 1 5.000000e-01 /Users/lab/Documents/magic3Definitivo/stim/6_noeffect.mov 459 03-May-2017 11:12:26 -4.952570e+02 4.453020e+02 0 0
18LZ24_M20 1 55 58 45 -45 right 1 5.000000e-01 /Users/lab/Documents/magic3Definitivo/stim/8_effect.mov 466 03-May-2017 11:12:29 -3.006184e+02 3.735064e+01 1 0
18LZ24_M20 1 56 21 45 45 right 1 5.000000e-01 /Users/lab/Documents/magic3Definitivo/stim/3_noeffect.mov 510 03-May-2017 11:12:47 3.603520e+02 -4.088576e+02 0 1
18LZ24_M20 1 57 4 -45 -45 right 0 5.000000e-01 /Users/lab/Documents/magic3Definitivo/stim/1_effect.mov 679 03-May-2017 11:12:50 4.892930e+02 4.344570e+02 1 0
18LZ24_M20 1 58 28 -45 -45 left 1 5.000000e-01 /Users/lab/Documents/magic3Definitivo/stim/4_effect.mov 464 03-May-2017 11:12:52 -4.021015e+02 -3.169261e+02 1 0
18LZ24_M20 1 59 59 -45 45 left 1 5.000000e-01 /Users/lab/Documents/magic3Definitivo/stim/8_effect.mov 513 03-May-2017 11:12:55 -3.088256e+02 -4.340769e+02 1 0
18LZ24_M20 1 60 75 -45 45 left 1 5.000000e-01 /Users/lab/Documents/magic3Definitivo/stim/10_effect.mov 593 03-May-2017 11:13:10 7.547646e+01 4.421100e+02 1 1
18LZ24_M20 1 61 62 45 -45 right 1 5.000000e-01 /Users/lab/Documents/magic3Definitivo/stim/8_noeffect.mov 448 03-May-2017 11:13:12 -1.970800e+02 -3.891803e+02 0 0
18LZ24_M20 1 62 48 -45 -45 right 0 5.000000e-01 /Users/lab/Documents/magic3Definitivo/stim/6_noeffect.mov 678 03-May-2017 11:13:15 4.948676e+02 3.964175e+02 0 0
18LZ24_M20 1 63 22 45 -45 right 1 5.000000e-01 /Users/lab/Documents/magic3Definitivo/stim/3_noeffect.mov 442 03-May-2017 11:13:18 2.157567e+02 -6.544121e+00 0 0
18LZ24_M20 1 64 6 45 -45 right 1 5.000000e-01 /Users/lab/Documents/magic3Definitivo/stim/1_noeffect.mov 543 03-May-2017 11:13:43 8.899492e+01 -4.452660e+02 1 1
18LZ24_M20 1 65 39 -45 45 left 1 5.000000e-01 /Users/lab/Documents/magic3Definitivo/stim/5_noeffect.mov 404 03-May-2017 11:13:45 -1.513715e+02 -2.012752e+02 0 0
18LZ24_M20 1 66 56 -45 -45 left 1 5.000000e-01 /Users/lab/Documents/magic3Definitivo/stim/7_noeffect.mov 432 03-May-2017 11:13:48 -2.556058e+02 -9.662198e+01 0 0
18LZ24_M20 1 67 74 45 -45 right 1 5.000000e-01 /Users/lab/Documents/magic3Definitivo/stim/10_effect.mov 478 03-May-2017 11:13:51 3.012602e+02 -4.045185e+02 1 0
18LZ24_M20 1 68 32 -45 -45 left 1 5.000000e-01 /Users/lab/Documents/magic3Definitivo/stim/4_noeffect.mov 610 03-May-2017 11:14:08 -2.716124e+02 3.610947e+02 0 1
18LZ24_M20 1 69 42 45 -45 right 1 5.000000e-01 /Users/lab/Documents/magic3Definitivo/stim/6_effect.mov 466 03-May-2017 11:14:11 4.891820e+02 1.750842e+02 1 0
18LZ24_M20 1 70 79 -45 45 left 1 5.000000e-01 /Users/lab/Documents/magic3Definitivo/stim/10_noeffect.mov 628 03-May-2017 11:14:14 4.572278e+02 9.701310e+01 0 0
18LZ24_M20 1 71 7 -45 45 left 1 5.000000e-01 /Users/lab/Documents/magic3Definitivo/stim/1_noeffect.mov 474 03-May-2017 11:14:16 4.492239e+02 -1.806372e+02 1 0
18LZ24_M20 1 72 60 -45 -45 right 0 5.000000e-01 /Users/lab/Documents/magic3Definitivo/stim/8_effect.mov 879 03-May-2017 11:14:38 -4.686320e+02 -6.219944e+01 1 1
18LZ24_M20 1 73 52 -45 -45 left 1 5.000000e-01 /Users/lab/Documents/magic3Definitivo/stim/7_effect.mov 628 03-May-2017 11:14:40 3.118430e+02 -3.675722e+02 1 0
18LZ24_M20 1 74 14 45 -45 right 1 5.000000e-01 /Users/lab/Documents/magic3Definitivo/stim/2_noeffect.mov 466 03-May-2017 11:14:43 -3.128229e+02 -2.042193e+02 0 0
18LZ24_M20 1 75 65 45 45 right 1 5.000000e-01 /Users/lab/Documents/magic3Definitivo/stim/9_effect.mov 452 03-May-2017 11:14:46 1.740845e+02 2.327513e+02 1 0
18LZ24_M20 1 76 68 -45 -45 right 0 5.000000e-01 /Users/lab/Documents/magic3Definitivo/stim/9_effect.mov 544 03-May-2017 11:15:08 8.345283e+01 3.205036e+02 1 1
18LZ24_M20 1 77 46 45 -45 right 1 5.000000e-01 /Users/lab/Documents/magic3Definitivo/stim/6_noeffect.mov 412 03-May-2017 11:15:10 3.804818e+02 2.097101e+02 0 0
18LZ24_M20 1 78 9 45 45 right 1 5.000000e-01 /Users/lab/Documents/magic3Definitivo/stim/2_effect.mov 399 03-May-2017 11:15:13 3.978918e+02 3.799649e+02 1 0
18LZ24_M20 1 79 61 45 45 right 1 5.000000e-01 /Users/lab/Documents/magic3Definitivo/stim/8_noeffect.mov 402 03-May-2017 11:15:16 -3.540190e+02 9.239826e+01 0 0
18LZ24_M20 1 80 55 -45 45 right 0 5.000000e-01 /Users/lab/Documents/magic3Definitivo/stim/7_noeffect.mov 453 03-May-2017 11:15:18 3.530748e+02 3.506661e+02 0 0
