subject_name subjectNumber iTrial unshuffled_trial targetOrientation flankersOrientation response correct onscreen_stim_duration magicShows rt date time_of_day deltaX deltaY surpriseClip isClipTrial
32am02_f19 465 1 10 45 -45 right 1 5.000000e-01 /Users/lab/Documents/surprise_project/surprise/stim/2_effect.mov 2229 05-Apr-2018 15:37:03 3.477624e+02 -4.319133e+02 1 1
32am02_f19 465 2 26 45 -45 right 1 5.000000e-01 /Users/lab/Documents/surprise_project/surprise/stim/4_effect.mov 979 05-Apr-2018 15:37:06 -3.130869e+02 2.607202e+02 1 0
32am02_f19 465 3 14 45 -45 right 1 5.000000e-01 /Users/lab/Documents/surprise_project/surprise/stim/2_noeffect.mov 680 05-Apr-2018 15:37:09 1.652755e+02 -1.433205e+02 0 0
32am02_f19 465 4 54 45 -45 right 1 5.000000e-01 /Users/lab/Documents/surprise_project/surprise/stim/7_noeffect.mov 961 05-Apr-2018 15:37:29 -3.783137e+02 2.277772e+02 0 1
32am02_f19 465 5 60 -45 -45 left 1 5.000000e-01 /Users/lab/Documents/surprise_project/surprise/stim/8_effect.mov 913 05-Apr-2018 15:37:32 -4.160776e+02 -2.655872e+02 1 0
32am02_f19 465 6 32 -45 -45 left 1 5.000000e-01 /Users/lab/Documents/surprise_project/surprise/stim/4_noeffect.mov 474 05-Apr-2018 15:37:35 1.072663e+02 -1.443773e+01 0 0
32am02_f19 465 7 37 45 45 right 1 5.000000e-01 /Users/lab/Documents/surprise_project/surprise/stim/5_noeffect.mov 460 05-Apr-2018 15:37:38 2.672581e+02 -1.890129e+02 0 0
32am02_f19 465 8 45 45 45 right 1 5.000000e-01 /Users/lab/Documents/surprise_project/surprise/stim/6_noeffect.mov 980 05-Apr-2018 15:37:53 -2.723016e+02 -3.917817e+02 0 1
32am02_f19 465 9 25 45 45 right 1 5.000000e-01 /Users/lab/Documents/surprise_project/surprise/stim/4_effect.mov 696 05-Apr-2018 15:37:56 -3.183364e+02 -1.958296e+02 1 0
32am02_f19 465 10 15 -45 45 left 1 5.000000e-01 /Users/lab/Documents/surprise_project/surprise/stim/2_noeffect.mov 545 05-Apr-2018 15:37:59 2.957811e+02 2.249907e+02 0 0
32am02_f19 465 11 63 -45 45 left 1 5.000000e-01 /Users/lab/Documents/surprise_project/surprise/stim/8_noeffect.mov 479 05-Apr-2018 15:38:02 2.957240e+01 -2.272943e+02 0 0
32am02_f19 465 12 31 -45 45 left 1 5.000000e-01 /Users/lab/Documents/surprise_project/surprise/stim/4_noeffect.mov 795 05-Apr-2018 15:38:20 2.185743e+02 -2.477916e+01 0 1
32am02_f19 465 13 58 45 -45 right 1 5.000000e-01 /Users/lab/Documents/surprise_project/surprise/stim/8_effect.mov 629 05-Apr-2018 15:38:23 4.692961e+02 6.388092e+01 1 0
32am02_f19 465 14 13 45 45 right 1 5.000000e-01 /Users/lab/Documents/surprise_project/surprise/stim/2_noeffect.mov 546 05-Apr-2018 15:38:26 -3.090216e+02 -1.479309e+02 0 0
32am02_f19 465 15 9 45 45 right 1 5.000000e-01 /Users/lab/Documents/surprise_project/surprise/stim/2_effect.mov 562 05-Apr-2018 15:38:29 -4.674742e+02 -3.258379e+02 1 0
32am02_f19 465 16 36 -45 45 left 1 5.000000e-01 /Users/lab/Documents/surprise_project/surprise/stim/5_effect.mov 791 05-Apr-2018 15:38:46 2.920370e+02 7.010230e+01 1 1
32am02_f19 465 17 46 45 -45 right 1 5.000000e-01 /Users/lab/Documents/surprise_project/surprise/stim/6_noeffect.mov 629 05-Apr-2018 15:38:49 -3.580682e+01 -7.429199e+01 0 0
32am02_f19 465 18 69 45 45 right 1 5.000000e-01 /Users/lab/Documents/surprise_project/surprise/stim/9_noeffect.mov 612 05-Apr-2018 15:38:52 -4.597935e+02 -3.345149e+02 0 0
32am02_f19 465 19 3 -45 45 left 1 5.000000e-01 /Users/lab/Documents/surprise_project/surprise/stim/1_effect.mov 647 05-Apr-2018 15:38:55 4.885398e+02 -3.521343e+02 1 0
32am02_f19 465 20 19 -45 45 left 1 5.000000e-01 /Users/lab/Documents/surprise_project/surprise/stim/3_effect.mov 796 05-Apr-2018 15:39:13 1.626747e+01 1.571775e+02 1 1
32am02_f19 465 21 11 -45 45 left 1 5.000000e-01 /Users/lab/Documents/surprise_project/surprise/stim/2_effect.mov 545 05-Apr-2018 15:39:16 6.524177e+01 4.670352e+02 1 0
32am02_f19 465 22 29 45 45 right 1 5.000000e-01 /Users/lab/Documents/surprise_project/surprise/stim/4_noeffect.mov 463 05-Apr-2018 15:39:19 -2.706457e+01 1.572434e+02 0 0
32am02_f19 465 23 53 45 45 right 1 5.000000e-01 /Users/lab/Documents/surprise_project/surprise/stim/7_noeffect.mov 498 05-Apr-2018 15:39:22 -4.094686e+02 1.273593e+02 0 0
32am02_f19 465 24 41 45 45 right 1 5.000000e-01 /Users/lab/Documents/surprise_project/surprise/stim/6_effect.mov 677 05-Apr-2018 15:39:37 -2.058749e+02 -2.018380e+02 1 1
32am02_f19 465 25 8 -45 -45 left 1 5.000000e-01 /Users/lab/Documents/surprise_project/surprise/stim/1_noeffect.mov 494 05-Apr-2018 15:39:40 -1.471109e+02 1.836712e+02 1 0
32am02_f19 465 26 27 -45 45 left 1 5.000000e-01 /Users/lab/Documents/surprise_project/surprise/stim/4_effect.mov 449 05-Apr-2018 15:39:43 1.305777e+02 1.772856e+02 1 0
32am02_f19 465 27 56 -45 -45 left 1 5.000000e-01 /Users/lab/Documents/surprise_project/surprise/stim/7_noeffect.mov 457 05-Apr-2018 15:39:46 2.891977e+02 4.956191e+02 0 0
32am02_f19 465 28 30 45 -45 right 1 5.000000e-01 /Users/lab/Documents/surprise_project/surprise/stim/4_noeffect.mov 695 05-Apr-2018 15:40:03 -4.687387e+02 1.274438e+02 0 1
32am02_f19 465 29 22 45 -45 right 1 5.000000e-01 /Users/lab/Documents/surprise_project/surprise/stim/3_noeffect.mov 493 05-Apr-2018 15:40:06 9.678682e+01 -2.279383e+02 0 0
32am02_f19 465 30 43 -45 45 left 1 5.000000e-01 /Users/lab/Documents/surprise_project/surprise/stim/6_effect.mov 546 05-Apr-2018 15:40:09 2.447861e+02 6.120955e+01 1 0
32am02_f19 465 31 5 45 45 right 1 5.000000e-01 /Users/lab/Documents/surprise_project/surprise/stim/1_noeffect.mov 528 05-Apr-2018 15:40:12 -4.812584e+02 -9.954142e+01 1 0
32am02_f19 465 32 42 45 -45 right 1 5.000000e-01 /Users/lab/Documents/surprise_project/surprise/stim/6_effect.mov 858 05-Apr-2018 15:40:27 -2.462806e+02 -3.236866e+02 1 1
32am02_f19 465 33 66 45 -45 right 1 5.000000e-01 /Users/lab/Documents/surprise_project/surprise/stim/9_effect.mov 471 05-Apr-2018 15:40:30 1.818333e+00 -4.995601e+02 1 0
32am02_f19 465 34 20 -45 -45 left 1 5.000000e-01 /Users/lab/Documents/surprise_project/surprise/stim/3_effect.mov 492 05-Apr-2018 15:40:33 -3.072608e+02 6.126818e+01 1 0
32am02_f19 465 35 4 -45 -45 left 1 5.000000e-01 /Users/lab/Documents/surprise_project/surprise/stim/1_effect.mov 495 05-Apr-2018 15:40:36 4.079546e+02 2.471602e+02 1 0
32am02_f19 465 36 17 45 45 right 1 5.000000e-01 /Users/lab/Documents/surprise_project/surprise/stim/3_effect.mov 696 05-Apr-2018 15:40:54 -2.591059e+02 2.163434e+02 1 1
32am02_f19 465 37 65 45 45 right 1 5.000000e-01 /Users/lab/Documents/surprise_project/surprise/stim/9_effect.mov 629 05-Apr-2018 15:40:57 -3.334759e+02 -4.295580e+02 1 0
32am02_f19 465 38 44 -45 -45 left 1 5.000000e-01 /Users/lab/Documents/surprise_project/surprise/stim/6_effect.mov 513 05-Apr-2018 15:41:00 -4.516151e+02 2.639018e+02 1 0
32am02_f19 465 39 16 -45 -45 left 1 5.000000e-01 /Users/lab/Documents/surprise_project/surprise/stim/2_noeffect.mov 443 05-Apr-2018 15:41:03 -3.052278e+01 -7.221140e+00 0 0
32am02_f19 465 40 57 45 45 right 1 5.000000e-01 /Users/lab/Documents/surprise_project/surprise/stim/8_effect.mov 628 05-Apr-2018 15:41:24 -2.999065e+02 -4.485664e+02 1 1
32am02_f19 465 41 6 45 -45 right 1 5.000000e-01 /Users/lab/Documents/surprise_project/surprise/stim/1_noeffect.mov 612 05-Apr-2018 15:41:27 -3.065949e+02 1.142632e+00 1 0
32am02_f19 465 42 55 -45 45 left 1 5.000000e-01 /Users/lab/Documents/surprise_project/surprise/stim/7_noeffect.mov 547 05-Apr-2018 15:41:30 2.942187e+01 1.023140e+02 0 0
32am02_f19 465 43 2 45 -45 right 1 5.000000e-01 /Users/lab/Documents/surprise_project/surprise/stim/1_effect.mov 629 05-Apr-2018 15:41:33 4.912845e+01 -5.984025e+01 1 0
32am02_f19 465 44 39 -45 45 left 1 5.000000e-01 /Users/lab/Documents/surprise_project/surprise/stim/5_noeffect.mov 746 05-Apr-2018 15:41:49 -2.721383e+02 2.093515e+02 0 1
32am02_f19 465 45 12 -45 -45 left 1 5.000000e-01 /Users/lab/Documents/surprise_project/surprise/stim/2_effect.mov 597 05-Apr-2018 15:41:52 4.541658e+02 -4.291004e+02 1 0
32am02_f19 465 46 64 -45 -45 left 1 5.000000e-01 /Users/lab/Documents/surprise_project/surprise/stim/8_noeffect.mov 464 05-Apr-2018 15:41:55 -4.766013e+02 -3.649634e+02 0 0
32am02_f19 465 47 47 -45 45 left 1 5.000000e-01 /Users/lab/Documents/surprise_project/surprise/stim/6_noeffect.mov 614 05-Apr-2018 15:41:58 -2.849197e+02 8.124805e+01 0 0
32am02_f19 465 48 49 45 45 right 1 5.000000e-01 /Users/lab/Documents/surprise_project/surprise/stim/7_effect.mov 795 05-Apr-2018 15:42:18 4.552421e+02 2.208957e+02 1 1
32am02_f19 465 49 62 45 -45 right 1 5.000000e-01 /Users/lab/Documents/surprise_project/surprise/stim/8_noeffect.mov 713 05-Apr-2018 15:42:21 -3.575005e+02 -9.790740e+01 0 0
32am02_f19 465 50 24 -45 -45 left 1 5.000000e-01 /Users/lab/Documents/surprise_project/surprise/stim/3_noeffect.mov 439 05-Apr-2018 15:42:24 -6.614499e+01 1.001135e+02 0 0
32am02_f19 465 51 34 45 -45 right 1 5.000000e-01 /Users/lab/Documents/surprise_project/surprise/stim/5_effect.mov 628 05-Apr-2018 15:42:26 2.966846e+02 -4.735633e+02 1 0
32am02_f19 465 52 33 45 45 right 1 5.000000e-01 /Users/lab/Documents/surprise_project/surprise/stim/5_effect.mov 529 05-Apr-2018 15:42:43 -2.571443e+02 4.910785e+02 1 1
32am02_f19 465 53 40 -45 -45 left 1 5.000000e-01 /Users/lab/Documents/surprise_project/surprise/stim/5_noeffect.mov 531 05-Apr-2018 15:42:46 4.839342e+02 -2.037938e+02 0 0
32am02_f19 465 54 52 -45 -45 left 1 5.000000e-01 /Users/lab/Documents/surprise_project/surprise/stim/7_effect.mov 512 05-Apr-2018 15:42:49 2.887773e+01 4.986938e+02 1 0
32am02_f19 465 55 48 -45 -45 left 1 5.000000e-01 /Users/lab/Documents/surprise_project/surprise/stim/6_noeffect.mov 431 05-Apr-2018 15:42:52 -1.912763e+02 1.303630e+02 0 0
32am02_f19 465 56 67 -45 45 left 1 5.000000e-01 /Users/lab/Documents/surprise_project/surprise/stim/9_effect.mov 762 05-Apr-2018 15:43:14 -1.562999e+02 3.033548e+02 1 1
32am02_f19 465 57 28 -45 -45 left 1 5.000000e-01 /Users/lab/Documents/surprise_project/surprise/stim/4_effect.mov 424 05-Apr-2018 15:43:17 -1.128716e+02 2.028040e+02 1 0
32am02_f19 465 58 70 45 -45 right 1 5.000000e-01 /Users/lab/Documents/surprise_project/surprise/stim/9_noeffect.mov 595 05-Apr-2018 15:43:20 -2.232989e+02 -3.689676e+02 0 0
32am02_f19 465 59 1 45 45 right 1 5.000000e-01 /Users/lab/Documents/surprise_project/surprise/stim/1_effect.mov 712 05-Apr-2018 15:43:23 3.360276e+02 -1.231255e+02 1 0
32am02_f19 465 60 59 -45 45 left 1 5.000000e-01 /Users/lab/Documents/surprise_project/surprise/stim/8_effect.mov 810 05-Apr-2018 15:43:44 -2.305764e+02 2.941575e+02 1 1
32am02_f19 465 61 61 45 45 right 1 5.000000e-01 /Users/lab/Documents/surprise_project/surprise/stim/8_noeffect.mov 423 05-Apr-2018 15:43:47 2.111126e+02 2.492488e+02 0 0
32am02_f19 465 62 68 -45 -45 left 1 5.000000e-01 /Users/lab/Documents/surprise_project/surprise/stim/9_effect.mov 469 05-Apr-2018 15:43:49 -5.695603e+01 2.914704e+02 1 0
32am02_f19 465 63 38 45 -45 right 1 5.000000e-01 /Users/lab/Documents/surprise_project/surprise/stim/5_noeffect.mov 563 05-Apr-2018 15:43:52 -4.803791e+02 1.160245e+02 0 0
32am02_f19 465 64 36 -45 -45 left 1 5.000000e-01 /Users/lab/Documents/surprise_project/surprise/stim/5_effect.mov 628 05-Apr-2018 15:44:09 1.265956e+02 1.811872e+02 1 1
32am02_f19 465 65 71 -45 45 left 1 5.000000e-01 /Users/lab/Documents/surprise_project/surprise/stim/9_noeffect.mov 712 05-Apr-2018 15:44:12 5.959527e+01 -2.683203e+02 0 0
32am02_f19 465 66 23 -45 45 left 1 5.000000e-01 /Users/lab/Documents/surprise_project/surprise/stim/3_noeffect.mov 613 05-Apr-2018 15:44:15 -1.862575e+02 4.801960e+02 0 0
32am02_f19 465 67 51 -45 45 left 1 5.000000e-01 /Users/lab/Documents/surprise_project/surprise/stim/7_effect.mov 547 05-Apr-2018 15:44:18 -2.192578e+02 -7.978540e+01 1 0
32am02_f19 465 68 50 45 -45 right 1 5.000000e-01 /Users/lab/Documents/surprise_project/surprise/stim/7_effect.mov 829 05-Apr-2018 15:44:37 4.877757e+02 -3.170884e+02 1 1
32am02_f19 465 69 18 45 -45 left 0 5.000000e-01 /Users/lab/Documents/surprise_project/surprise/stim/3_effect.mov 455 05-Apr-2018 15:44:40 -4.656486e+01 -1.764456e+02 1 0
32am02_f19 465 70 72 -45 -45 left 1 5.000000e-01 /Users/lab/Documents/surprise_project/surprise/stim/9_noeffect.mov 595 05-Apr-2018 15:44:43 -4.463943e+02 -3.251110e+02 0 0
32am02_f19 465 71 7 -45 45 left 1 5.000000e-01 /Users/lab/Documents/surprise_project/surprise/stim/1_noeffect.mov 632 05-Apr-2018 15:44:46 2.077639e+02 3.259259e+02 1 0
32am02_f19 465 72 21 45 45 right 1 5.000000e-01 /Users/lab/Documents/surprise_project/surprise/stim/3_noeffect.mov 564 05-Apr-2018 15:44:49 -3.175764e+02 -1.553180e+02 0 0
