subject_name subjectNumber iTrial unshuffled_trial targetOrientation flankersOrientation response correct onscreen_stim_duration magicShows rt date time_of_day deltaX deltaY surpriseClip isClipTrial
45ln03_f20 327 1 11 -45 45 left 1 5.000000e-01 /Users/lab/Documents/surprise_project/surprise/stim/2_effect.mov 1476 28-Mar-2018 12:23:34 -3.838086e+02 -2.191796e+02 1 1
45ln03_f20 327 2 42 45 -45 left 0 5.000000e-01 /Users/lab/Documents/surprise_project/surprise/stim/6_effect.mov 1162 28-Mar-2018 12:23:38 -4.863167e+02 7.133008e+00 1 0
45ln03_f20 327 3 56 -45 -45 left 1 5.000000e-01 /Users/lab/Documents/surprise_project/surprise/stim/7_noeffect.mov 1948 28-Mar-2018 12:23:42 -3.499869e+02 3.245532e+02 0 0
45ln03_f20 327 4 5 45 45 left 0 5.000000e-01 /Users/lab/Documents/surprise_project/surprise/stim/1_noeffect.mov 963 28-Mar-2018 12:24:07 -4.143200e+01 6.871805e+01 1 1
45ln03_f20 327 5 36 -45 45 right 0 5.000000e-01 /Users/lab/Documents/surprise_project/surprise/stim/5_effect.mov 1329 28-Mar-2018 12:24:11 8.540113e+01 1.819008e+02 1 0
45ln03_f20 327 6 13 45 45 left 0 5.000000e-01 /Users/lab/Documents/surprise_project/surprise/stim/2_noeffect.mov 813 28-Mar-2018 12:24:14 -1.587885e+02 2.757009e+02 0 0
45ln03_f20 327 7 33 45 45 left 0 5.000000e-01 /Users/lab/Documents/surprise_project/surprise/stim/5_effect.mov 1062 28-Mar-2018 12:24:17 6.825237e+01 -4.488895e+02 1 0
45ln03_f20 327 8 40 -45 -45 right 0 5.000000e-01 /Users/lab/Documents/surprise_project/surprise/stim/5_noeffect.mov 1960 28-Mar-2018 12:24:35 -2.679260e+02 4.362056e+02 0 1
45ln03_f20 327 9 70 45 -45 right 1 5.000000e-01 /Users/lab/Documents/surprise_project/surprise/stim/9_noeffect.mov 812 28-Mar-2018 12:24:38 2.404979e+02 1.424361e+02 0 0
45ln03_f20 327 10 37 45 45 left 0 5.000000e-01 /Users/lab/Documents/surprise_project/surprise/stim/5_noeffect.mov 1596 28-Mar-2018 12:24:42 4.680733e+02 -3.673349e+02 0 0
45ln03_f20 327 11 47 -45 45 left 1 5.000000e-01 /Users/lab/Documents/surprise_project/surprise/stim/6_noeffect.mov 2546 28-Mar-2018 12:24:47 -5.500633e+00 3.556415e+01 0 0
45ln03_f20 327 12 67 -45 45 left 1 5.000000e-01 /Users/lab/Documents/surprise_project/surprise/stim/9_effect.mov 2312 28-Mar-2018 12:25:11 1.320130e+02 8.250799e+01 1 1
45ln03_f20 327 13 12 -45 -45 left 1 5.000000e-01 /Users/lab/Documents/surprise_project/surprise/stim/2_effect.mov 897 28-Mar-2018 12:25:14 4.170906e+02 1.320697e+02 1 0
45ln03_f20 327 14 17 45 45 right 1 5.000000e-01 /Users/lab/Documents/surprise_project/surprise/stim/3_effect.mov 996 28-Mar-2018 12:25:17 -7.338405e+01 -6.873692e+01 1 0
45ln03_f20 327 15 57 45 45 right 1 5.000000e-01 /Users/lab/Documents/surprise_project/surprise/stim/8_effect.mov 796 28-Mar-2018 12:25:20 -9.364250e+01 1.997892e+02 1 0
45ln03_f20 327 16 69 45 45 right 1 5.000000e-01 /Users/lab/Documents/surprise_project/surprise/stim/9_noeffect.mov 1292 28-Mar-2018 12:25:43 3.515314e+02 -3.806211e+02 0 1
45ln03_f20 327 17 19 -45 45 right 0 5.000000e-01 /Users/lab/Documents/surprise_project/surprise/stim/3_effect.mov 1831 28-Mar-2018 12:25:47 -1.986805e+01 -2.302266e+02 1 0
45ln03_f20 327 18 18 45 -45 right 1 5.000000e-01 /Users/lab/Documents/surprise_project/surprise/stim/3_effect.mov 1046 28-Mar-2018 12:25:50 2.084857e+02 1.456049e+02 1 0
45ln03_f20 327 19 54 45 -45 right 1 5.000000e-01 /Users/lab/Documents/surprise_project/surprise/stim/7_noeffect.mov 796 28-Mar-2018 12:25:53 2.493593e+02 -3.795042e+02 0 0
45ln03_f20 327 20 59 -45 45 left 1 5.000000e-01 /Users/lab/Documents/surprise_project/surprise/stim/8_effect.mov 1563 28-Mar-2018 12:26:15 4.395784e+02 3.595116e+02 1 1
45ln03_f20 327 21 46 45 -45 right 1 5.000000e-01 /Users/lab/Documents/surprise_project/surprise/stim/6_noeffect.mov 596 28-Mar-2018 12:26:18 -1.422089e+02 4.197665e+02 0 0
45ln03_f20 327 22 55 -45 45 left 1 5.000000e-01 /Users/lab/Documents/surprise_project/surprise/stim/7_noeffect.mov 912 28-Mar-2018 12:26:21 -1.118346e+02 -2.376900e+02 0 0
45ln03_f20 327 23 28 -45 -45 right 0 5.000000e-01 /Users/lab/Documents/surprise_project/surprise/stim/4_effect.mov 1045 28-Mar-2018 12:26:25 3.587230e+02 4.223030e+01 1 0
45ln03_f20 327 24 2 45 -45 right 1 5.000000e-01 /Users/lab/Documents/surprise_project/surprise/stim/1_effect.mov 928 28-Mar-2018 12:26:50 7.995006e+01 -1.580947e+01 1 1
45ln03_f20 327 25 43 -45 45 left 1 5.000000e-01 /Users/lab/Documents/surprise_project/surprise/stim/6_effect.mov 1162 28-Mar-2018 12:26:53 1.207868e+02 -7.139162e+01 1 0
45ln03_f20 327 26 25 45 45 left 0 5.000000e-01 /Users/lab/Documents/surprise_project/surprise/stim/4_effect.mov 779 28-Mar-2018 12:26:56 3.656238e+02 -7.274379e+01 1 0
45ln03_f20 327 27 14 45 -45 right 1 5.000000e-01 /Users/lab/Documents/surprise_project/surprise/stim/2_noeffect.mov 564 28-Mar-2018 12:26:59 1.447540e+02 -5.128141e+01 0 0
45ln03_f20 327 28 38 45 -45 right 1 5.000000e-01 /Users/lab/Documents/surprise_project/surprise/stim/5_noeffect.mov 893 28-Mar-2018 12:27:16 1.412877e+02 4.794799e+02 0 1
45ln03_f20 327 29 26 45 -45 right 1 5.000000e-01 /Users/lab/Documents/surprise_project/surprise/stim/4_effect.mov 562 28-Mar-2018 12:27:19 2.878067e+02 1.199916e+02 1 0
45ln03_f20 327 30 34 45 -45 right 1 5.000000e-01 /Users/lab/Documents/surprise_project/surprise/stim/5_effect.mov 680 28-Mar-2018 12:27:22 2.228785e+02 4.215862e+02 1 0
45ln03_f20 327 31 61 45 45 left 0 5.000000e-01 /Users/lab/Documents/surprise_project/surprise/stim/8_noeffect.mov 964 28-Mar-2018 12:27:25 -6.979495e+01 -3.157799e+01 0 0
45ln03_f20 327 32 4 -45 -45 right 0 5.000000e-01 /Users/lab/Documents/surprise_project/surprise/stim/1_effect.mov 1062 28-Mar-2018 12:27:51 -9.377174e+01 8.112089e+01 1 1
45ln03_f20 327 33 1 45 45 left 0 5.000000e-01 /Users/lab/Documents/surprise_project/surprise/stim/1_effect.mov 946 28-Mar-2018 12:27:54 1.052299e+02 3.143123e+02 1 0
45ln03_f20 327 34 16 -45 -45 right 0 5.000000e-01 /Users/lab/Documents/surprise_project/surprise/stim/2_noeffect.mov 1413 28-Mar-2018 12:27:58 -4.546916e+02 4.236734e+02 0 0
45ln03_f20 327 35 71 -45 45 left 1 5.000000e-01 /Users/lab/Documents/surprise_project/surprise/stim/9_noeffect.mov 896 28-Mar-2018 12:28:01 3.245580e+02 -3.715002e+02 0 0
45ln03_f20 327 36 22 45 -45 right 1 5.000000e-01 /Users/lab/Documents/surprise_project/surprise/stim/3_noeffect.mov 928 28-Mar-2018 12:28:20 -3.745170e+02 -2.894376e+02 0 1
45ln03_f20 327 37 62 45 -45 right 1 5.000000e-01 /Users/lab/Documents/surprise_project/surprise/stim/8_noeffect.mov 679 28-Mar-2018 12:28:23 3.231201e+02 4.726495e+02 0 0
45ln03_f20 327 38 41 45 45 right 1 5.000000e-01 /Users/lab/Documents/surprise_project/surprise/stim/6_effect.mov 1048 28-Mar-2018 12:28:26 -4.157156e+02 2.670818e+02 1 0
45ln03_f20 327 39 9 45 45 left 0 5.000000e-01 /Users/lab/Documents/surprise_project/surprise/stim/2_effect.mov 863 28-Mar-2018 12:28:29 -6.574580e+01 2.816581e+01 1 0
45ln03_f20 327 40 3 -45 45 left 1 5.000000e-01 /Users/lab/Documents/surprise_project/surprise/stim/1_effect.mov 1059 28-Mar-2018 12:28:54 4.200571e+02 1.152788e+02 1 1
45ln03_f20 327 41 10 45 -45 right 1 5.000000e-01 /Users/lab/Documents/surprise_project/surprise/stim/2_effect.mov 630 28-Mar-2018 12:28:57 -1.630740e+02 -3.176382e+02 1 0
45ln03_f20 327 42 58 45 -45 right 1 5.000000e-01 /Users/lab/Documents/surprise_project/surprise/stim/8_effect.mov 596 28-Mar-2018 12:29:00 -2.138173e+02 -1.164683e+02 1 0
45ln03_f20 327 43 50 45 -45 right 1 5.000000e-01 /Users/lab/Documents/surprise_project/surprise/stim/7_effect.mov 695 28-Mar-2018 12:29:03 -1.175344e+02 -3.626649e+02 1 0
45ln03_f20 327 44 60 -45 -45 right 0 5.000000e-01 /Users/lab/Documents/surprise_project/surprise/stim/8_effect.mov 962 28-Mar-2018 12:29:25 -5.937373e+01 -4.928757e+01 1 1
45ln03_f20 327 45 24 -45 -45 left 1 5.000000e-01 /Users/lab/Documents/surprise_project/surprise/stim/3_noeffect.mov 796 28-Mar-2018 12:29:28 4.464450e+02 4.039533e+02 0 0
45ln03_f20 327 46 45 45 45 left 0 5.000000e-01 /Users/lab/Documents/surprise_project/surprise/stim/6_noeffect.mov 945 28-Mar-2018 12:29:31 4.220091e+02 -4.438087e+02 0 0
45ln03_f20 327 47 31 -45 45 left 1 5.000000e-01 /Users/lab/Documents/surprise_project/surprise/stim/4_noeffect.mov 1263 28-Mar-2018 12:29:35 6.122062e+01 -2.769354e+02 0 0
45ln03_f20 327 48 48 -45 -45 left 1 5.000000e-01 /Users/lab/Documents/surprise_project/surprise/stim/6_noeffect.mov 1061 28-Mar-2018 12:29:50 2.432002e+02 -2.170653e+02 0 1
45ln03_f20 327 49 39 -45 45 left 1 5.000000e-01 /Users/lab/Documents/surprise_project/surprise/stim/5_noeffect.mov 979 28-Mar-2018 12:29:53 -3.514429e+02 6.715270e+01 0 0
45ln03_f20 327 50 52 -45 -45 right 0 5.000000e-01 /Users/lab/Documents/surprise_project/surprise/stim/7_effect.mov 930 28-Mar-2018 12:29:57 -2.571978e+02 8.019786e+01 1 0
45ln03_f20 327 51 72 -45 -45 left 1 5.000000e-01 /Users/lab/Documents/surprise_project/surprise/stim/9_noeffect.mov 829 28-Mar-2018 12:30:00 -4.143469e+02 4.836582e+02 0 0
45ln03_f20 327 52 68 -45 -45 left 1 5.000000e-01 /Users/lab/Documents/surprise_project/surprise/stim/9_effect.mov 1081 28-Mar-2018 12:30:22 1.238172e+02 4.348521e+02 1 1
45ln03_f20 327 53 7 -45 45 left 1 5.000000e-01 /Users/lab/Documents/surprise_project/surprise/stim/1_noeffect.mov 745 28-Mar-2018 12:30:25 3.802385e+01 8.979906e+01 1 0
45ln03_f20 327 54 49 45 45 left 0 5.000000e-01 /Users/lab/Documents/surprise_project/surprise/stim/7_effect.mov 482 28-Mar-2018 12:30:28 1.392710e+02 4.443210e+02 1 0
45ln03_f20 327 55 53 45 45 right 1 5.000000e-01 /Users/lab/Documents/surprise_project/surprise/stim/7_noeffect.mov 780 28-Mar-2018 12:30:31 3.004696e+02 5.429600e+01 0 0
45ln03_f20 327 56 36 -45 -45 right 0 5.000000e-01 /Users/lab/Documents/surprise_project/surprise/stim/5_effect.mov 1061 28-Mar-2018 12:30:48 4.639968e+02 -3.949911e+02 1 1
45ln03_f20 327 57 21 45 45 left 0 5.000000e-01 /Users/lab/Documents/surprise_project/surprise/stim/3_noeffect.mov 915 28-Mar-2018 12:30:51 3.998030e+02 -3.639485e+02 0 0
45ln03_f20 327 58 64 -45 -45 right 0 5.000000e-01 /Users/lab/Documents/surprise_project/surprise/stim/8_noeffect.mov 1412 28-Mar-2018 12:30:55 1.192392e+02 1.148792e+02 0 0
45ln03_f20 327 59 44 -45 -45 left 1 5.000000e-01 /Users/lab/Documents/surprise_project/surprise/stim/6_effect.mov 997 28-Mar-2018 12:30:58 2.598326e+02 6.135969e+01 1 0
45ln03_f20 327 60 66 45 -45 right 1 5.000000e-01 /Users/lab/Documents/surprise_project/surprise/stim/9_effect.mov 1100 28-Mar-2018 12:31:21 3.672812e+02 -2.847188e+01 1 1
45ln03_f20 327 61 27 -45 45 left 1 5.000000e-01 /Users/lab/Documents/surprise_project/surprise/stim/4_effect.mov 894 28-Mar-2018 12:31:24 4.471302e+02 -4.557252e+02 1 0
45ln03_f20 327 62 32 -45 -45 left 1 5.000000e-01 /Users/lab/Documents/surprise_project/surprise/stim/4_noeffect.mov 931 28-Mar-2018 12:31:27 -2.082685e+02 3.627439e+02 0 0
45ln03_f20 327 63 51 -45 45 left 1 5.000000e-01 /Users/lab/Documents/surprise_project/surprise/stim/7_effect.mov 696 28-Mar-2018 12:31:30 1.855734e+02 -3.836627e+02 1 0
45ln03_f20 327 64 15 -45 45 left 1 5.000000e-01 /Users/lab/Documents/surprise_project/surprise/stim/2_noeffect.mov 894 28-Mar-2018 12:31:55 -4.972252e+02 3.580419e+01 0 1
45ln03_f20 327 65 20 -45 -45 right 0 5.000000e-01 /Users/lab/Documents/surprise_project/surprise/stim/3_effect.mov 813 28-Mar-2018 12:31:58 -1.077709e+02 1.676495e+02 1 0
45ln03_f20 327 66 6 45 -45 right 1 5.000000e-01 /Users/lab/Documents/surprise_project/surprise/stim/1_noeffect.mov 729 28-Mar-2018 12:32:01 -2.934406e+02 2.271307e+02 1 0
45ln03_f20 327 67 30 45 -45 right 1 5.000000e-01 /Users/lab/Documents/surprise_project/surprise/stim/4_noeffect.mov 613 28-Mar-2018 12:32:04 -1.194992e+02 -4.056323e+02 0 0
45ln03_f20 327 68 8 -45 -45 left 1 5.000000e-01 /Users/lab/Documents/surprise_project/surprise/stim/1_noeffect.mov 1695 28-Mar-2018 12:32:30 -8.521449e+00 3.999044e+02 1 1
45ln03_f20 327 69 65 45 45 right 1 5.000000e-01 /Users/lab/Documents/surprise_project/surprise/stim/9_effect.mov 1029 28-Mar-2018 12:32:34 -2.962708e+02 -2.325410e+02 1 0
45ln03_f20 327 70 63 -45 45 left 1 5.000000e-01 /Users/lab/Documents/surprise_project/surprise/stim/8_noeffect.mov 980 28-Mar-2018 12:32:37 9.128888e+01 1.558950e+02 0 0
45ln03_f20 327 71 23 -45 45 left 1 5.000000e-01 /Users/lab/Documents/surprise_project/surprise/stim/3_noeffect.mov 695 28-Mar-2018 12:32:40 -2.714001e+02 -3.109653e+02 0 0
45ln03_f20 327 72 29 45 45 left 0 5.000000e-01 /Users/lab/Documents/surprise_project/surprise/stim/4_noeffect.mov 680 28-Mar-2018 12:32:43 -5.531555e+01 1.669375e+02 0 0
