subject_name subjectNumber block iTrial unshuffled_trial targetOrientation flankersOrientation response correct onscreen_stim_duration magicShows rt date time_of_day deltaX deltaY surpriseClip isClipTrial isSurprise
lu_po_1997_05_16_989_f 764 3 1 0 34 45 -45 right 1 3 /Users/lab/Documents/experiments/2019/surprise/stim/5_noeffect.mov 1136 15-Apr-2019 17:39:34 3.550913e+02 -4.285513e+02 0 1
lu_po_1997_05_16_989_f 764 3 2 0 23 -45 45 left 1 3 /Users/lab/Documents/experiments/2019/surprise/stim/3_noeffect.mov 557 15-Apr-2019 17:39:37 4.208922e+02 -3.615733e+02 0 0
lu_po_1997_05_16_989_f 764 3 3 0 55 -45 45 left 1 3 /Users/lab/Documents/experiments/2019/surprise/stim/7_noeffect.mov 546 15-Apr-2019 17:39:40 -2.451266e+02 -1.538190e+02 0 0
lu_po_1997_05_16_989_f 764 3 4 0 29 45 45 right 1 3 /Users/lab/Documents/experiments/2019/surprise/stim/4_noeffect.mov 543 15-Apr-2019 17:39:57 4.734632e+02 -3.953129e+02 0 1
lu_po_1997_05_16_989_f 764 3 5 0 9 45 45 right 1 3 /Users/lab/Documents/experiments/2019/surprise/stim/2_noeffect.mov 466 15-Apr-2019 17:40:00 1.358862e+02 4.686284e+02 0 0
lu_po_1997_05_16_989_f 764 3 6 0 70 45 -45 right 1 3 /Users/lab/Documents/experiments/2019/surprise/stim/9_noeffect.mov 425 15-Apr-2019 17:40:03 4.725001e+02 -3.336088e+02 0 0
lu_po_1997_05_16_989_f 764 3 7 0 68 -45 -45 left 1 3 /Users/lab/Documents/experiments/2019/surprise/stim/9_noeffect.mov 809 15-Apr-2019 17:40:06 -3.297979e+02 -4.559767e+01 0 0
lu_po_1997_05_16_989_f 764 3 8 0 52 -45 -45 NORESP 0 3 /Users/lab/Documents/experiments/2019/surprise/stim/7_noeffect.mov 3000 15-Apr-2019 17:40:27 1.427387e+02 4.121134e+02 0 1
lu_po_1997_05_16_989_f 764 3 9 0 19 -45 45 left 1 3 /Users/lab/Documents/experiments/2019/surprise/stim/2_noeffect.mov 777 15-Apr-2019 17:40:30 -3.486759e+02 -4.373042e+01 0 0
lu_po_1997_05_16_989_f 764 3 10 0 38 45 -45 right 1 3 /Users/lab/Documents/experiments/2019/surprise/stim/5_noeffect.mov 685 15-Apr-2019 17:40:33 -3.800431e+02 -3.426295e+02 0 0
lu_po_1997_05_16_989_f 764 3 11 0 77 45 45 right 1 3 /Users/lab/Documents/experiments/2019/surprise/stim/9_noeffect.mov 496 15-Apr-2019 17:40:36 1.023378e+02 -3.985067e+01 0 0
lu_po_1997_05_16_989_f 764 3 12 0 21 45 45 right 1 3 /Users/lab/Documents/experiments/2019/surprise/stim/3_noeffect.mov 741 15-Apr-2019 17:40:54 -3.650106e+02 1.688325e+02 0 1
lu_po_1997_05_16_989_f 764 3 13 0 51 -45 45 left 1 3 /Users/lab/Documents/experiments/2019/surprise/stim/7_noeffect.mov 485 15-Apr-2019 17:40:57 7.685648e+00 3.831201e+02 0 0
lu_po_1997_05_16_989_f 764 3 14 0 50 45 -45 right 1 3 /Users/lab/Documents/experiments/2019/surprise/stim/7_noeffect.mov 564 15-Apr-2019 17:41:00 3.738235e+02 3.903980e+02 0 0
lu_po_1997_05_16_989_f 764 3 15 0 59 -45 45 left 1 3 /Users/lab/Documents/experiments/2019/surprise/stim/8_noeffect.mov 623 15-Apr-2019 17:41:03 -3.204524e+02 3.844311e+02 0 0
lu_po_1997_05_16_989_f 764 3 16 0 12 -45 -45 left 1 3 /Users/lab/Documents/experiments/2019/surprise/stim/2_noeffect.mov 906 15-Apr-2019 17:41:28 2.815127e+02 4.322920e+02 0 1
lu_po_1997_05_16_989_f 764 3 17 0 56 -45 -45 left 1 3 /Users/lab/Documents/experiments/2019/surprise/stim/7_noeffect.mov 594 15-Apr-2019 17:41:31 5.485963e+01 2.201047e+02 0 0
lu_po_1997_05_16_989_f 764 3 18 0 75 -45 45 left 1 3 /Users/lab/Documents/experiments/2019/surprise/stim/9_noeffect.mov 617 15-Apr-2019 17:41:34 -4.111618e+02 -3.493833e+02 0 0
lu_po_1997_05_16_989_f 764 3 19 0 5 45 45 right 1 3 /Users/lab/Documents/experiments/2019/surprise/stim/1_noeffect.mov 669 15-Apr-2019 17:41:37 3.305825e+02 4.505183e+02 0 0
lu_po_1997_05_16_989_f 764 3 20 0 32 -45 -45 left 1 3 /Users/lab/Documents/experiments/2019/surprise/stim/4_noeffect.mov 897 15-Apr-2019 17:41:54 3.882935e+01 1.049135e+02 0 1
lu_po_1997_05_16_989_f 764 3 21 0 48 -45 -45 left 1 3 /Users/lab/Documents/experiments/2019/surprise/stim/6_noeffect.mov 569 15-Apr-2019 17:41:57 4.828327e+02 -1.718116e+01 0 0
lu_po_1997_05_16_989_f 764 3 22 0 28 -45 -45 left 1 3 /Users/lab/Documents/experiments/2019/surprise/stim/4_noeffect.mov 569 15-Apr-2019 17:42:00 -1.101029e+02 4.955101e+02 0 0
lu_po_1997_05_16_989_f 764 3 23 0 31 -45 45 left 1 3 /Users/lab/Documents/experiments/2019/surprise/stim/4_noeffect.mov 621 15-Apr-2019 17:42:03 -3.078771e+02 -7.613870e+01 0 0
lu_po_1997_05_16_989_f 764 3 24 0 41 45 45 right 1 3 /Users/lab/Documents/experiments/2019/surprise/stim/6_noeffect.mov 922 15-Apr-2019 17:42:18 2.425668e+02 -3.472380e+02 0 1
lu_po_1997_05_16_989_f 764 3 25 0 30 45 -45 right 1 3 /Users/lab/Documents/experiments/2019/surprise/stim/4_noeffect.mov 515 15-Apr-2019 17:42:21 -1.258978e+02 1.969555e+02 0 0
lu_po_1997_05_16_989_f 764 3 26 0 40 -45 -45 left 1 3 /Users/lab/Documents/experiments/2019/surprise/stim/5_noeffect.mov 585 15-Apr-2019 17:42:24 2.956413e+02 4.534100e+02 0 0
lu_po_1997_05_16_989_f 764 3 27 0 65 45 45 right 1 3 /Users/lab/Documents/experiments/2019/surprise/stim/9_noeffect.mov 699 15-Apr-2019 17:42:27 3.628822e+02 -1.334086e+02 0 0
lu_po_1997_05_16_989_f 764 3 28 0 44 -45 -45 left 1 3 /Users/lab/Documents/experiments/2019/surprise/stim/6_noeffect.mov 762 15-Apr-2019 17:42:42 4.086609e+02 -4.704038e+01 0 1
lu_po_1997_05_16_989_f 764 3 29 0 43 -45 45 left 1 3 /Users/lab/Documents/experiments/2019/surprise/stim/6_noeffect.mov 612 15-Apr-2019 17:42:45 -2.054079e+02 -1.306284e+02 0 0
lu_po_1997_05_16_989_f 764 3 30 0 25 45 45 right 1 3 /Users/lab/Documents/experiments/2019/surprise/stim/4_noeffect.mov 659 15-Apr-2019 17:42:48 1.319098e+02 4.769793e+01 0 0
lu_po_1997_05_16_989_f 764 3 31 0 3 -45 45 left 1 3 /Users/lab/Documents/experiments/2019/surprise/stim/1_noeffect.mov 658 15-Apr-2019 17:42:51 2.081991e+02 1.815590e+02 0 0
lu_po_1997_05_16_989_f 764 3 32 0 27 -45 45 left 1 3 /Users/lab/Documents/experiments/2019/surprise/stim/4_noeffect.mov 907 15-Apr-2019 17:43:08 1.294976e+02 -3.859729e+02 0 1
lu_po_1997_05_16_989_f 764 3 33 0 15 -45 45 left 1 3 /Users/lab/Documents/experiments/2019/surprise/stim/2_noeffect.mov 496 15-Apr-2019 17:43:11 1.454312e+02 -2.065954e+02 0 0
lu_po_1997_05_16_989_f 764 3 34 0 8 -45 -45 left 1 3 /Users/lab/Documents/experiments/2019/surprise/stim/1_noeffect.mov 619 15-Apr-2019 17:43:14 -2.813643e+02 4.083107e+02 0 0
lu_po_1997_05_16_989_f 764 3 35 0 67 -45 45 left 1 3 /Users/lab/Documents/experiments/2019/surprise/stim/9_noeffect.mov 592 15-Apr-2019 17:43:17 -4.451004e+02 -3.227611e+02 0 0
lu_po_1997_05_16_989_f 764 3 36 0 10 45 -45 right 1 3 /Users/lab/Documents/experiments/2019/surprise/stim/2_noeffect.mov 698 15-Apr-2019 17:43:42 -2.318272e+02 -1.620637e+02 0 1
lu_po_1997_05_16_989_f 764 3 37 0 49 45 45 right 1 3 /Users/lab/Documents/experiments/2019/surprise/stim/7_noeffect.mov 452 15-Apr-2019 17:43:45 2.704349e+02 1.982492e+02 0 0
lu_po_1997_05_16_989_f 764 3 38 0 20 -45 -45 left 1 3 /Users/lab/Documents/experiments/2019/surprise/stim/2_noeffect.mov 672 15-Apr-2019 17:43:48 2.198840e+02 2.100226e+02 0 0
lu_po_1997_05_16_989_f 764 3 39 0 74 45 -45 right 1 3 /Users/lab/Documents/experiments/2019/surprise/stim/9_noeffect.mov 565 15-Apr-2019 17:43:51 4.844467e+02 2.239066e+02 0 0
lu_po_1997_05_16_989_f 764 3 40 0 1 45 45 right 1 3 /Users/lab/Documents/experiments/2019/surprise/stim/1_noeffect.mov 719 15-Apr-2019 17:44:15 -2.976835e+02 -3.789453e+02 0 1
lu_po_1997_05_16_989_f 764 3 41 0 71 -45 45 left 1 3 /Users/lab/Documents/experiments/2019/surprise/stim/9_noeffect.mov 564 15-Apr-2019 17:44:18 1.922227e+02 1.897582e+02 0 0
lu_po_1997_05_16_989_f 764 3 42 0 33 45 45 right 1 3 /Users/lab/Documents/experiments/2019/surprise/stim/5_noeffect.mov 705 15-Apr-2019 17:44:21 3.693598e+02 -4.636304e+02 0 0
lu_po_1997_05_16_989_f 764 3 43 0 76 -45 -45 left 1 3 /Users/lab/Documents/experiments/2019/surprise/stim/9_noeffect.mov 762 15-Apr-2019 17:44:25 -3.988578e+02 4.405520e+02 0 0
lu_po_1997_05_16_989_f 764 3 44 0 73 45 45 right 1 3 /Users/lab/Documents/experiments/2019/surprise/stim/9_noeffect.mov 845 15-Apr-2019 17:44:46 1.191342e+01 3.599874e+02 0 1
lu_po_1997_05_16_989_f 764 3 45 0 7 -45 45 left 1 3 /Users/lab/Documents/experiments/2019/surprise/stim/1_noeffect.mov 541 15-Apr-2019 17:44:49 -9.032418e+01 4.990158e+02 0 0
lu_po_1997_05_16_989_f 764 3 46 0 42 45 -45 right 1 3 /Users/lab/Documents/experiments/2019/surprise/stim/6_noeffect.mov 745 15-Apr-2019 17:44:52 -3.707000e+02 -1.954321e+02 0 0
lu_po_1997_05_16_989_f 764 3 47 0 78 45 -45 right 1 3 /Users/lab/Documents/experiments/2019/surprise/stim/9_noeffect.mov 558 15-Apr-2019 17:44:55 -3.342462e+02 -4.507594e+01 0 0
lu_po_1997_05_16_989_f 764 3 48 0 47 -45 45 left 1 3 /Users/lab/Documents/experiments/2019/surprise/stim/6_noeffect.mov 980 15-Apr-2019 17:45:10 -3.327557e+02 5.570959e+01 0 1
lu_po_1997_05_16_989_f 764 3 49 0 45 45 45 right 1 3 /Users/lab/Documents/experiments/2019/surprise/stim/6_noeffect.mov 503 15-Apr-2019 17:45:13 3.636860e+02 -1.540906e+02 0 0
lu_po_1997_05_16_989_f 764 3 50 0 54 45 -45 right 1 3 /Users/lab/Documents/experiments/2019/surprise/stim/7_noeffect.mov 561 15-Apr-2019 17:45:16 4.728571e+02 -3.996151e+02 0 0
lu_po_1997_05_16_989_f 764 3 51 0 13 45 45 right 1 3 /Users/lab/Documents/experiments/2019/surprise/stim/2_noeffect.mov 598 15-Apr-2019 17:45:19 -1.298547e+02 -2.620312e+02 0 0
lu_po_1997_05_16_989_f 764 3 52 0 11 -45 45 left 1 3 /Users/lab/Documents/experiments/2019/surprise/stim/2_noeffect.mov 607 15-Apr-2019 17:45:44 1.239722e+02 -1.344175e+02 0 1
lu_po_1997_05_16_989_f 764 3 53 0 16 -45 -45 left 1 3 /Users/lab/Documents/experiments/2019/surprise/stim/2_noeffect.mov 609 15-Apr-2019 17:45:47 4.958071e+02 -2.935500e+02 0 0
lu_po_1997_05_16_989_f 764 3 54 0 17 45 45 right 1 3 /Users/lab/Documents/experiments/2019/surprise/stim/2_noeffect.mov 516 15-Apr-2019 17:45:50 -4.407874e+02 -2.409153e+02 0 0
lu_po_1997_05_16_989_f 764 3 55 0 57 45 45 right 1 3 /Users/lab/Documents/experiments/2019/surprise/stim/8_noeffect.mov 506 15-Apr-2019 17:45:52 -1.697302e+02 2.882643e+02 0 0
lu_po_1997_05_16_989_f 764 3 56 0 26 45 -45 right 1 3 /Users/lab/Documents/experiments/2019/surprise/stim/4_noeffect.mov 654 15-Apr-2019 17:46:10 3.481840e+02 -4.789838e+02 0 1
lu_po_1997_05_16_989_f 764 3 57 0 80 -45 -45 left 1 3 /Users/lab/Documents/experiments/2019/surprise/stim/9_noeffect.mov 615 15-Apr-2019 17:46:13 1.302184e+02 -3.720331e+02 0 0
lu_po_1997_05_16_989_f 764 3 58 0 6 45 -45 right 1 3 /Users/lab/Documents/experiments/2019/surprise/stim/1_noeffect.mov 552 15-Apr-2019 17:46:16 4.548522e+02 -3.544320e+02 0 0
lu_po_1997_05_16_989_f 764 3 59 0 53 45 45 right 1 3 /Users/lab/Documents/experiments/2019/surprise/stim/7_noeffect.mov 646 15-Apr-2019 17:46:19 1.951407e+02 6.960687e+01 0 0
lu_po_1997_05_16_989_f 764 3 60 0 66 45 -45 right 1 3 /Users/lab/Documents/experiments/2019/surprise/stim/9_noeffect.mov 614 15-Apr-2019 17:46:40 8.122729e+01 -4.207406e+02 0 1
lu_po_1997_05_16_989_f 764 3 61 0 72 -45 -45 left 1 3 /Users/lab/Documents/experiments/2019/surprise/stim/9_noeffect.mov 759 15-Apr-2019 17:46:44 2.478492e+02 -1.744286e+02 0 0
lu_po_1997_05_16_989_f 764 3 62 0 79 -45 45 left 1 3 /Users/lab/Documents/experiments/2019/surprise/stim/9_noeffect.mov 490 15-Apr-2019 17:46:46 4.076564e+02 -2.502146e+02 0 0
lu_po_1997_05_16_989_f 764 3 63 0 18 45 -45 right 1 3 /Users/lab/Documents/experiments/2019/surprise/stim/2_noeffect.mov 625 15-Apr-2019 17:46:49 -3.262404e+02 5.325203e+01 0 0
lu_po_1997_05_16_989_f 764 3 64 0 46 45 -45 right 1 3 /Users/lab/Documents/experiments/2019/surprise/stim/6_noeffect.mov 705 15-Apr-2019 17:47:04 8.859403e+01 1.726518e+02 0 1
lu_po_1997_05_16_989_f 764 3 65 0 4 -45 -45 left 1 3 /Users/lab/Documents/experiments/2019/surprise/stim/1_noeffect.mov 507 15-Apr-2019 17:47:07 2.550602e+02 -4.285381e+01 0 0
lu_po_1997_05_16_989_f 764 3 66 0 62 45 -45 right 1 3 /Users/lab/Documents/experiments/2019/surprise/stim/8_noeffect.mov 539 15-Apr-2019 17:47:10 -1.360973e+02 -1.608973e+02 0 0
lu_po_1997_05_16_989_f 764 3 67 0 37 45 45 right 1 3 /Users/lab/Documents/experiments/2019/surprise/stim/5_noeffect.mov 489 15-Apr-2019 17:47:13 1.919096e+02 -1.665264e+02 0 0
lu_po_1997_05_16_989_f 764 3 68 0 2 45 -45 right 1 3 /Users/lab/Documents/experiments/2019/surprise/stim/1_noeffect.mov 974 15-Apr-2019 17:47:38 -2.228796e+02 4.655529e+02 0 1
lu_po_1997_05_16_989_f 764 3 69 0 39 -45 45 left 1 3 /Users/lab/Documents/experiments/2019/surprise/stim/5_noeffect.mov 569 15-Apr-2019 17:47:41 7.079158e+01 3.389170e+02 0 0
lu_po_1997_05_16_989_f 764 3 70 0 35 -45 45 left 1 3 /Users/lab/Documents/experiments/2019/surprise/stim/5_noeffect.mov 557 15-Apr-2019 17:47:44 1.966606e+02 -4.477117e+02 0 0
lu_po_1997_05_16_989_f 764 3 71 0 36 -45 -45 left 1 3 /Users/lab/Documents/experiments/2019/surprise/stim/5_noeffect.mov 552 15-Apr-2019 17:47:47 1.846771e+02 -1.021757e+02 0 0
lu_po_1997_05_16_989_f 764 3 72 0 24 -45 -45 left 1 3 /Users/lab/Documents/experiments/2019/surprise/stim/3_noeffect.mov 713 15-Apr-2019 17:48:05 -3.356563e+02 -1.760555e+02 0 1
lu_po_1997_05_16_989_f 764 3 73 0 14 45 -45 right 1 3 /Users/lab/Documents/experiments/2019/surprise/stim/2_noeffect.mov 542 15-Apr-2019 17:48:08 2.788645e+02 3.699723e+02 0 0
lu_po_1997_05_16_989_f 764 3 74 0 60 -45 -45 left 1 3 /Users/lab/Documents/experiments/2019/surprise/stim/8_noeffect.mov 661 15-Apr-2019 17:48:11 -3.438792e+02 1.430850e+02 0 0
lu_po_1997_05_16_989_f 764 3 75 0 63 -45 45 left 1 3 /Users/lab/Documents/experiments/2019/surprise/stim/8_noeffect.mov 514 15-Apr-2019 17:48:14 -9.044323e+01 -6.838746e+01 0 0
lu_po_1997_05_16_989_f 764 3 76 0 58 45 -45 right 1 3 /Users/lab/Documents/experiments/2019/surprise/stim/8_noeffect.mov 713 15-Apr-2019 17:48:35 1.791516e+02 3.140308e+02 0 1
lu_po_1997_05_16_989_f 764 3 77 0 61 45 45 right 1 3 /Users/lab/Documents/experiments/2019/surprise/stim/8_noeffect.mov 523 15-Apr-2019 17:48:38 -3.252810e+02 4.363762e+02 0 0
lu_po_1997_05_16_989_f 764 3 78 0 64 -45 -45 left 1 3 /Users/lab/Documents/experiments/2019/surprise/stim/8_noeffect.mov 680 15-Apr-2019 17:48:40 -1.031068e+02 2.383179e+02 0 0
lu_po_1997_05_16_989_f 764 3 79 0 22 45 -45 right 1 3 /Users/lab/Documents/experiments/2019/surprise/stim/3_noeffect.mov 507 15-Apr-2019 17:48:43 -2.145562e+02 -2.074308e+02 0 0
lu_po_1997_05_16_989_f 764 3 80 0 69 45 45 right 1 3 /Users/lab/Documents/experiments/2019/surprise/stim/9_noeffect.mov 430 15-Apr-2019 17:48:46 8.363806e+01 -4.524636e+02 0 0
