subject_name subjectNumber iTrial unshuffled_trial targetOrientation flankersOrientation response correct onscreen_stim_duration magicShows rt date time_of_day deltaX deltaY surpriseClip isClipTrial
97nm28_f19 176 1 5 45 45 right 1 5.000000e-01 /Users/lab/Documents/surprise_project/surprise/stim/1_noeffect.mov 561 21-Mar-2018 17:04:39 -3.602331e+02 -1.818756e+02 1 1
97nm28_f19 176 2 41 45 45 right 1 5.000000e-01 /Users/lab/Documents/surprise_project/surprise/stim/6_effect.mov 389 21-Mar-2018 17:04:42 2.147400e+02 -3.417209e+02 1 0
97nm28_f19 176 3 36 -45 -45 left 1 5.000000e-01 /Users/lab/Documents/surprise_project/surprise/stim/5_effect.mov 631 21-Mar-2018 17:04:45 -4.951859e+02 -4.315471e+02 1 0
97nm28_f19 176 4 66 45 -45 right 1 5.000000e-01 /Users/lab/Documents/surprise_project/surprise/stim/9_effect.mov 646 21-Mar-2018 17:05:07 -4.749317e+02 3.587313e+02 1 1
97nm28_f19 176 5 36 -45 45 right 0 5.000000e-01 /Users/lab/Documents/surprise_project/surprise/stim/5_effect.mov 647 21-Mar-2018 17:05:10 3.359865e+02 1.242224e+02 1 0
97nm28_f19 176 6 26 45 -45 right 1 5.000000e-01 /Users/lab/Documents/surprise_project/surprise/stim/4_effect.mov 699 21-Mar-2018 17:05:13 2.278854e+02 -3.202746e+02 1 0
97nm28_f19 176 7 15 -45 45 left 1 5.000000e-01 /Users/lab/Documents/surprise_project/surprise/stim/2_noeffect.mov 458 21-Mar-2018 17:05:16 -1.940432e+02 -3.003989e+02 0 0
97nm28_f19 176 8 46 45 -45 right 1 5.000000e-01 /Users/lab/Documents/surprise_project/surprise/stim/6_noeffect.mov 696 21-Mar-2018 17:05:30 -6.032458e+01 2.236644e+02 0 1
97nm28_f19 176 9 18 45 -45 right 1 5.000000e-01 /Users/lab/Documents/surprise_project/surprise/stim/3_effect.mov 452 21-Mar-2018 17:05:33 2.481371e+02 -2.880883e+02 1 0
97nm28_f19 176 10 62 45 -45 right 1 5.000000e-01 /Users/lab/Documents/surprise_project/surprise/stim/8_noeffect.mov 437 21-Mar-2018 17:05:36 5.205733e+01 2.183496e+02 0 0
97nm28_f19 176 11 72 -45 -45 left 1 5.000000e-01 /Users/lab/Documents/surprise_project/surprise/stim/9_noeffect.mov 486 21-Mar-2018 17:05:39 8.231580e+01 1.021028e+02 0 0
97nm28_f19 176 12 65 45 45 right 1 5.000000e-01 /Users/lab/Documents/surprise_project/surprise/stim/9_effect.mov 663 21-Mar-2018 17:06:01 -2.905672e+02 2.778213e+02 1 1
97nm28_f19 176 13 21 45 45 right 1 5.000000e-01 /Users/lab/Documents/surprise_project/surprise/stim/3_noeffect.mov 433 21-Mar-2018 17:06:04 -3.443966e+02 -4.254034e+01 0 0
97nm28_f19 176 14 31 -45 45 left 1 5.000000e-01 /Users/lab/Documents/surprise_project/surprise/stim/4_noeffect.mov 565 21-Mar-2018 17:06:07 -8.474285e+01 4.552825e+02 0 0
97nm28_f19 176 15 28 -45 -45 left 1 5.000000e-01 /Users/lab/Documents/surprise_project/surprise/stim/4_effect.mov 409 21-Mar-2018 17:06:09 -1.992174e+02 -2.535881e+02 1 0
97nm28_f19 176 16 22 45 -45 right 1 5.000000e-01 /Users/lab/Documents/surprise_project/surprise/stim/3_noeffect.mov 530 21-Mar-2018 17:06:27 -2.127430e+02 3.224167e+02 0 1
97nm28_f19 176 17 50 45 -45 right 1 5.000000e-01 /Users/lab/Documents/surprise_project/surprise/stim/7_effect.mov 599 21-Mar-2018 17:06:30 1.648934e+02 3.843346e+02 1 0
97nm28_f19 176 18 70 45 -45 right 1 5.000000e-01 /Users/lab/Documents/surprise_project/surprise/stim/9_noeffect.mov 431 21-Mar-2018 17:06:33 5.904364e+01 6.736922e+01 0 0
97nm28_f19 176 19 49 45 45 right 1 5.000000e-01 /Users/lab/Documents/surprise_project/surprise/stim/7_effect.mov 470 21-Mar-2018 17:06:36 -1.142344e+02 1.031800e+02 1 0
97nm28_f19 176 20 11 -45 45 left 1 5.000000e-01 /Users/lab/Documents/surprise_project/surprise/stim/2_effect.mov 664 21-Mar-2018 17:07:01 -1.178248e+02 -1.421992e+02 1 1
97nm28_f19 176 21 20 -45 -45 left 1 5.000000e-01 /Users/lab/Documents/surprise_project/surprise/stim/3_effect.mov 487 21-Mar-2018 17:07:04 -6.556147e+01 1.968272e+02 1 0
97nm28_f19 176 22 64 -45 -45 left 1 5.000000e-01 /Users/lab/Documents/surprise_project/surprise/stim/8_noeffect.mov 412 21-Mar-2018 17:07:07 -1.361618e+01 2.802528e+02 0 0
97nm28_f19 176 23 30 45 -45 right 1 5.000000e-01 /Users/lab/Documents/surprise_project/surprise/stim/4_noeffect.mov 451 21-Mar-2018 17:07:10 -9.617278e+01 -1.241801e+02 0 0
97nm28_f19 176 24 59 -45 45 left 1 5.000000e-01 /Users/lab/Documents/surprise_project/surprise/stim/8_effect.mov 663 21-Mar-2018 17:07:31 -4.934248e+02 -4.407924e+02 1 1
97nm28_f19 176 25 55 -45 45 left 1 5.000000e-01 /Users/lab/Documents/surprise_project/surprise/stim/7_noeffect.mov 516 21-Mar-2018 17:07:34 5.188724e+01 -1.874424e+02 0 0
97nm28_f19 176 26 32 -45 -45 left 1 5.000000e-01 /Users/lab/Documents/surprise_project/surprise/stim/4_noeffect.mov 495 21-Mar-2018 17:07:37 3.013939e+02 -3.538678e+02 0 0
97nm28_f19 176 27 37 45 45 right 1 5.000000e-01 /Users/lab/Documents/surprise_project/surprise/stim/5_noeffect.mov 581 21-Mar-2018 17:07:40 4.241609e+02 -7.539944e+00 0 0
97nm28_f19 176 28 7 -45 45 left 1 5.000000e-01 /Users/lab/Documents/surprise_project/surprise/stim/1_noeffect.mov 647 21-Mar-2018 17:08:04 9.252551e+01 -3.605459e+02 1 1
97nm28_f19 176 29 45 45 45 right 1 5.000000e-01 /Users/lab/Documents/surprise_project/surprise/stim/6_noeffect.mov 532 21-Mar-2018 17:08:07 -3.078404e+02 3.797232e+02 0 0
97nm28_f19 176 30 33 45 45 right 1 5.000000e-01 /Users/lab/Documents/surprise_project/surprise/stim/5_effect.mov 427 21-Mar-2018 17:08:10 -1.269476e+02 -1.819540e+02 1 0
97nm28_f19 176 31 13 45 45 right 1 5.000000e-01 /Users/lab/Documents/surprise_project/surprise/stim/2_noeffect.mov 409 21-Mar-2018 17:08:13 3.704564e+02 3.755766e+01 0 0
97nm28_f19 176 32 1 45 45 right 1 5.000000e-01 /Users/lab/Documents/surprise_project/surprise/stim/1_effect.mov 580 21-Mar-2018 17:08:38 3.795178e+02 1.809470e+02 1 1
97nm28_f19 176 33 61 45 45 right 1 5.000000e-01 /Users/lab/Documents/surprise_project/surprise/stim/8_noeffect.mov 419 21-Mar-2018 17:08:41 -8.301874e+01 -3.821390e+02 0 0
97nm28_f19 176 34 60 -45 -45 left 1 5.000000e-01 /Users/lab/Documents/surprise_project/surprise/stim/8_effect.mov 442 21-Mar-2018 17:08:43 -6.560198e+01 1.576545e+02 1 0
97nm28_f19 176 35 42 45 -45 right 1 5.000000e-01 /Users/lab/Documents/surprise_project/surprise/stim/6_effect.mov 432 21-Mar-2018 17:08:46 -1.751178e+02 -1.267313e+02 1 0
97nm28_f19 176 36 14 45 -45 right 1 5.000000e-01 /Users/lab/Documents/surprise_project/surprise/stim/2_noeffect.mov 647 21-Mar-2018 17:09:11 4.194693e+02 -4.622282e+02 0 1
97nm28_f19 176 37 68 -45 -45 left 1 5.000000e-01 /Users/lab/Documents/surprise_project/surprise/stim/9_effect.mov 765 21-Mar-2018 17:09:14 -1.244501e+02 3.445122e+02 1 0
97nm28_f19 176 38 23 -45 45 left 1 5.000000e-01 /Users/lab/Documents/surprise_project/surprise/stim/3_noeffect.mov 516 21-Mar-2018 17:09:17 2.466764e+02 -3.152317e+02 0 0
97nm28_f19 176 39 8 -45 -45 left 1 5.000000e-01 /Users/lab/Documents/surprise_project/surprise/stim/1_noeffect.mov 495 21-Mar-2018 17:09:20 -4.461263e+02 -2.193199e+02 1 0
97nm28_f19 176 40 17 45 45 right 1 5.000000e-01 /Users/lab/Documents/surprise_project/surprise/stim/3_effect.mov 563 21-Mar-2018 17:09:38 -3.143906e+02 -4.440063e+02 1 1
97nm28_f19 176 41 43 -45 45 left 1 5.000000e-01 /Users/lab/Documents/surprise_project/surprise/stim/6_effect.mov 463 21-Mar-2018 17:09:41 -4.710398e+02 1.599235e+02 1 0
97nm28_f19 176 42 12 -45 -45 left 1 5.000000e-01 /Users/lab/Documents/surprise_project/surprise/stim/2_effect.mov 498 21-Mar-2018 17:09:44 3.604540e+02 3.244053e+02 1 0
97nm28_f19 176 43 34 45 -45 right 1 5.000000e-01 /Users/lab/Documents/surprise_project/surprise/stim/5_effect.mov 448 21-Mar-2018 17:09:47 4.510467e+01 -3.603760e+02 1 0
97nm28_f19 176 44 51 -45 45 right 0 5.000000e-01 /Users/lab/Documents/surprise_project/surprise/stim/7_effect.mov 2099 21-Mar-2018 17:10:17 -2.236501e+01 3.752708e+02 1 1
97nm28_f19 176 45 10 45 -45 right 1 5.000000e-01 /Users/lab/Documents/surprise_project/surprise/stim/2_effect.mov 614 21-Mar-2018 17:10:20 -1.785534e+02 -1.207502e+02 1 0
97nm28_f19 176 46 19 -45 45 left 1 5.000000e-01 /Users/lab/Documents/surprise_project/surprise/stim/3_effect.mov 531 21-Mar-2018 17:10:23 -5.862475e+01 3.994343e+02 1 0
97nm28_f19 176 47 3 -45 45 left 1 5.000000e-01 /Users/lab/Documents/surprise_project/surprise/stim/1_effect.mov 665 21-Mar-2018 17:10:26 3.782830e+02 -3.063528e+02 1 0
97nm28_f19 176 48 47 -45 45 left 1 5.000000e-01 /Users/lab/Documents/surprise_project/surprise/stim/6_noeffect.mov 648 21-Mar-2018 17:10:41 4.822431e+02 2.263485e+02 0 1
97nm28_f19 176 49 2 45 -45 right 1 5.000000e-01 /Users/lab/Documents/surprise_project/surprise/stim/1_effect.mov 515 21-Mar-2018 17:10:44 -2.506006e+02 -1.627005e+02 1 0
97nm28_f19 176 50 53 45 45 right 1 5.000000e-01 /Users/lab/Documents/surprise_project/surprise/stim/7_noeffect.mov 517 21-Mar-2018 17:10:47 -2.186418e+02 -3.504946e+02 0 0
97nm28_f19 176 51 56 -45 -45 left 1 5.000000e-01 /Users/lab/Documents/surprise_project/surprise/stim/7_noeffect.mov 583 21-Mar-2018 17:10:50 1.570899e+02 2.824379e+02 0 0
97nm28_f19 176 52 9 45 45 right 1 5.000000e-01 /Users/lab/Documents/surprise_project/surprise/stim/2_effect.mov 547 21-Mar-2018 17:11:15 -3.366243e+02 1.704879e+02 1 1
97nm28_f19 176 53 16 -45 -45 left 1 5.000000e-01 /Users/lab/Documents/surprise_project/surprise/stim/2_noeffect.mov 452 21-Mar-2018 17:11:18 1.812465e+02 1.566319e+02 0 0
97nm28_f19 176 54 38 45 -45 right 1 5.000000e-01 /Users/lab/Documents/surprise_project/surprise/stim/5_noeffect.mov 477 21-Mar-2018 17:11:21 1.087678e+01 -2.134746e+02 0 0
97nm28_f19 176 55 4 -45 -45 left 1 5.000000e-01 /Users/lab/Documents/surprise_project/surprise/stim/1_effect.mov 489 21-Mar-2018 17:11:23 3.058912e+00 8.563057e+01 1 0
97nm28_f19 176 56 25 45 45 right 1 5.000000e-01 /Users/lab/Documents/surprise_project/surprise/stim/4_effect.mov 596 21-Mar-2018 17:11:40 -3.823130e+01 3.958813e+02 1 1
97nm28_f19 176 57 48 -45 -45 left 1 5.000000e-01 /Users/lab/Documents/surprise_project/surprise/stim/6_noeffect.mov 459 21-Mar-2018 17:11:43 -1.209481e+02 -4.233456e+02 0 0
97nm28_f19 176 58 58 45 -45 right 1 5.000000e-01 /Users/lab/Documents/surprise_project/surprise/stim/8_effect.mov 476 21-Mar-2018 17:11:46 3.409996e+02 -4.858855e+01 1 0
97nm28_f19 176 59 57 45 45 right 1 5.000000e-01 /Users/lab/Documents/surprise_project/surprise/stim/8_effect.mov 416 21-Mar-2018 17:11:49 -4.361167e+02 3.537934e+02 1 0
97nm28_f19 176 60 52 -45 -45 left 1 5.000000e-01 /Users/lab/Documents/surprise_project/surprise/stim/7_effect.mov 712 21-Mar-2018 17:12:08 -4.868634e+02 3.409061e+02 1 1
97nm28_f19 176 61 54 45 -45 right 1 5.000000e-01 /Users/lab/Documents/surprise_project/surprise/stim/7_noeffect.mov 432 21-Mar-2018 17:12:11 -2.436881e+02 -4.522289e+02 0 0
97nm28_f19 176 62 6 45 -45 right 1 5.000000e-01 /Users/lab/Documents/surprise_project/surprise/stim/1_noeffect.mov 681 21-Mar-2018 17:12:14 2.053935e+02 -2.011510e+01 1 0
97nm28_f19 176 63 67 -45 45 left 1 5.000000e-01 /Users/lab/Documents/surprise_project/surprise/stim/9_effect.mov 485 21-Mar-2018 17:12:17 2.689355e+02 1.080305e+02 1 0
97nm28_f19 176 64 71 -45 45 left 1 5.000000e-01 /Users/lab/Documents/surprise_project/surprise/stim/9_noeffect.mov 628 21-Mar-2018 17:12:38 -1.461746e+02 1.717093e+02 0 1
97nm28_f19 176 65 24 -45 -45 left 1 5.000000e-01 /Users/lab/Documents/surprise_project/surprise/stim/3_noeffect.mov 392 21-Mar-2018 17:12:41 1.857431e+01 -2.751615e+01 0 0
97nm28_f19 176 66 69 45 45 right 1 5.000000e-01 /Users/lab/Documents/surprise_project/surprise/stim/9_noeffect.mov 463 21-Mar-2018 17:12:44 -2.201754e+02 -4.852529e+02 0 0
97nm28_f19 176 67 40 -45 -45 left 1 5.000000e-01 /Users/lab/Documents/surprise_project/surprise/stim/5_noeffect.mov 480 21-Mar-2018 17:12:47 -5.120116e+01 -2.729304e+01 0 0
97nm28_f19 176 68 44 -45 -45 left 1 5.000000e-01 /Users/lab/Documents/surprise_project/surprise/stim/6_effect.mov 580 21-Mar-2018 17:13:02 -1.425561e+02 6.742589e+01 1 1
97nm28_f19 176 69 27 -45 45 left 1 5.000000e-01 /Users/lab/Documents/surprise_project/surprise/stim/4_effect.mov 581 21-Mar-2018 17:13:05 -3.128572e+02 -2.589533e+02 1 0
97nm28_f19 176 70 39 -45 45 left 1 5.000000e-01 /Users/lab/Documents/surprise_project/surprise/stim/5_noeffect.mov 483 21-Mar-2018 17:13:08 3.999175e+01 -1.583088e+02 0 0
97nm28_f19 176 71 29 45 45 right 1 5.000000e-01 /Users/lab/Documents/surprise_project/surprise/stim/4_noeffect.mov 463 21-Mar-2018 17:13:11 2.925869e+02 2.754931e+00 0 0
97nm28_f19 176 72 63 -45 45 left 1 5.000000e-01 /Users/lab/Documents/surprise_project/surprise/stim/8_noeffect.mov 598 21-Mar-2018 17:13:14 -4.478036e+02 8.135859e+01 0 0
