subject_name subjectNumber block iTrial unshuffled_trial targetOrientation flankersOrientation response correct onscreen_stim_duration magicShows rt date time_of_day deltaX deltaY surpriseClip isClipTrial isSurprise
be_me_ 1999_11_29_754_f 912 3 1 0 53 45 45 right 1 3 /Users/lab/Documents/experiments/2019/surprise/stim/7_noeffect.mov 1100 15-May-2019 12:21:43 -3.893989e+02 -2.822568e+02 0 1
be_me_ 1999_11_29_754_f 912 3 2 0 13 45 45 right 1 3 /Users/lab/Documents/experiments/2019/surprise/stim/2_noeffect.mov 599 15-May-2019 12:21:46 1.750801e+02 -5.210096e+01 0 0
be_me_ 1999_11_29_754_f 912 3 3 0 43 -45 45 left 1 3 /Users/lab/Documents/experiments/2019/surprise/stim/6_noeffect.mov 816 15-May-2019 12:21:49 -1.626876e+02 1.317754e+02 0 0
be_me_ 1999_11_29_754_f 912 3 4 0 19 -45 45 left 1 3 /Users/lab/Documents/experiments/2019/surprise/stim/2_noeffect.mov 755 15-May-2019 12:22:13 -3.122509e+02 -5.713656e+01 0 1
be_me_ 1999_11_29_754_f 912 3 5 0 3 -45 45 left 1 3 /Users/lab/Documents/experiments/2019/surprise/stim/1_noeffect.mov 508 15-May-2019 12:22:16 -2.389539e+02 1.953918e+02 0 0
be_me_ 1999_11_29_754_f 912 3 6 0 35 -45 45 left 1 3 /Users/lab/Documents/experiments/2019/surprise/stim/5_noeffect.mov 552 15-May-2019 12:22:19 -3.098269e+02 -3.594316e+02 0 0
be_me_ 1999_11_29_754_f 912 3 7 0 76 -45 -45 left 1 3 /Users/lab/Documents/experiments/2019/surprise/stim/9_noeffect.mov 495 15-May-2019 12:22:22 3.825665e+02 3.337849e+02 0 0
be_me_ 1999_11_29_754_f 912 3 8 0 62 45 -45 right 1 3 /Users/lab/Documents/experiments/2019/surprise/stim/8_noeffect.mov 691 15-May-2019 12:22:43 1.459890e+02 1.547466e+02 0 1
be_me_ 1999_11_29_754_f 912 3 9 0 58 45 -45 right 1 3 /Users/lab/Documents/experiments/2019/surprise/stim/8_noeffect.mov 606 15-May-2019 12:22:46 -1.403477e+02 2.007556e+02 0 0
be_me_ 1999_11_29_754_f 912 3 10 0 32 -45 -45 left 1 3 /Users/lab/Documents/experiments/2019/surprise/stim/4_noeffect.mov 662 15-May-2019 12:22:49 -2.509781e+01 1.542770e+02 0 0
be_me_ 1999_11_29_754_f 912 3 11 0 24 -45 -45 left 1 3 /Users/lab/Documents/experiments/2019/surprise/stim/3_noeffect.mov 448 15-May-2019 12:22:52 -1.493069e+02 2.133930e+02 0 0
be_me_ 1999_11_29_754_f 912 3 12 0 51 -45 45 left 1 3 /Users/lab/Documents/experiments/2019/surprise/stim/7_noeffect.mov 1115 15-May-2019 12:23:11 -2.646245e+02 2.060704e+02 0 1
be_me_ 1999_11_29_754_f 912 3 13 0 50 45 -45 right 1 3 /Users/lab/Documents/experiments/2019/surprise/stim/7_noeffect.mov 641 15-May-2019 12:23:14 -4.948294e+02 -3.634437e+02 0 0
be_me_ 1999_11_29_754_f 912 3 14 0 66 45 -45 right 1 3 /Users/lab/Documents/experiments/2019/surprise/stim/9_noeffect.mov 613 15-May-2019 12:23:17 -4.483752e+02 3.809291e+02 0 0
be_me_ 1999_11_29_754_f 912 3 15 0 16 -45 -45 left 1 3 /Users/lab/Documents/experiments/2019/surprise/stim/2_noeffect.mov 870 15-May-2019 12:23:20 -2.964250e+02 -3.276493e+01 0 0
be_me_ 1999_11_29_754_f 912 3 16 0 8 -45 -45 left 1 3 /Users/lab/Documents/experiments/2019/surprise/stim/1_noeffect.mov 930 15-May-2019 12:23:46 3.413053e+02 -1.772401e+02 0 1
be_me_ 1999_11_29_754_f 912 3 17 0 56 -45 -45 left 1 3 /Users/lab/Documents/experiments/2019/surprise/stim/7_noeffect.mov 466 15-May-2019 12:23:48 1.133896e+02 -6.766375e+01 0 0
be_me_ 1999_11_29_754_f 912 3 18 0 37 45 45 right 1 3 /Users/lab/Documents/experiments/2019/surprise/stim/5_noeffect.mov 585 15-May-2019 12:23:51 3.832237e+01 4.418942e-01 0 0
be_me_ 1999_11_29_754_f 912 3 19 0 59 -45 45 left 1 3 /Users/lab/Documents/experiments/2019/surprise/stim/8_noeffect.mov 646 15-May-2019 12:23:54 -1.065576e+02 6.473269e+01 0 0
be_me_ 1999_11_29_754_f 912 3 20 0 27 -45 45 left 1 3 /Users/lab/Documents/experiments/2019/surprise/stim/4_noeffect.mov 818 15-May-2019 12:24:11 1.709036e+02 2.471724e+02 0 1
be_me_ 1999_11_29_754_f 912 3 21 0 57 45 45 left 0 3 /Users/lab/Documents/experiments/2019/surprise/stim/8_noeffect.mov 505 15-May-2019 12:24:14 -9.698427e+01 1.030167e+02 0 0
be_me_ 1999_11_29_754_f 912 3 22 0 64 -45 -45 left 1 3 /Users/lab/Documents/experiments/2019/surprise/stim/8_noeffect.mov 538 15-May-2019 12:24:17 -3.989708e+02 6.687772e+01 0 0
be_me_ 1999_11_29_754_f 912 3 23 0 28 -45 -45 left 1 3 /Users/lab/Documents/experiments/2019/surprise/stim/4_noeffect.mov 645 15-May-2019 12:24:20 2.673258e+02 -2.740161e+02 0 0
be_me_ 1999_11_29_754_f 912 3 24 0 9 45 45 right 1 3 /Users/lab/Documents/experiments/2019/surprise/stim/2_noeffect.mov 745 15-May-2019 12:24:45 -4.115270e+02 -3.997342e+02 0 1
be_me_ 1999_11_29_754_f 912 3 25 0 77 45 45 right 1 3 /Users/lab/Documents/experiments/2019/surprise/stim/9_noeffect.mov 846 15-May-2019 12:24:48 1.456149e+02 7.307744e+01 0 0
be_me_ 1999_11_29_754_f 912 3 26 0 21 45 45 right 1 3 /Users/lab/Documents/experiments/2019/surprise/stim/3_noeffect.mov 630 15-May-2019 12:24:51 2.369663e+02 8.033579e+01 0 0
be_me_ 1999_11_29_754_f 912 3 27 0 41 45 45 right 1 3 /Users/lab/Documents/experiments/2019/surprise/stim/6_noeffect.mov 714 15-May-2019 12:24:54 -3.632432e+02 2.965700e+02 0 0
be_me_ 1999_11_29_754_f 912 3 28 0 23 -45 45 left 1 3 /Users/lab/Documents/experiments/2019/surprise/stim/3_noeffect.mov 826 15-May-2019 12:25:12 -2.157324e+02 1.727983e+01 0 1
be_me_ 1999_11_29_754_f 912 3 29 0 63 -45 45 left 1 3 /Users/lab/Documents/experiments/2019/surprise/stim/8_noeffect.mov 509 15-May-2019 12:25:15 3.684851e+02 -6.689843e+01 0 0
be_me_ 1999_11_29_754_f 912 3 30 0 31 -45 45 left 1 3 /Users/lab/Documents/experiments/2019/surprise/stim/4_noeffect.mov 411 15-May-2019 12:25:18 1.667259e+02 -2.685022e+02 0 0
be_me_ 1999_11_29_754_f 912 3 31 0 47 -45 45 left 1 3 /Users/lab/Documents/experiments/2019/surprise/stim/6_noeffect.mov 524 15-May-2019 12:25:21 -4.142578e+01 4.898090e+02 0 0
be_me_ 1999_11_29_754_f 912 3 32 0 44 -45 -45 left 1 3 /Users/lab/Documents/experiments/2019/surprise/stim/6_noeffect.mov 854 15-May-2019 12:25:36 -2.350111e+02 -1.479894e+02 0 1
be_me_ 1999_11_29_754_f 912 3 33 0 7 -45 45 left 1 3 /Users/lab/Documents/experiments/2019/surprise/stim/1_noeffect.mov 776 15-May-2019 12:25:39 -2.926965e+02 4.453217e+02 0 0
be_me_ 1999_11_29_754_f 912 3 34 0 38 45 -45 right 1 3 /Users/lab/Documents/experiments/2019/surprise/stim/5_noeffect.mov 533 15-May-2019 12:25:42 7.738956e+01 -1.074920e+02 0 0
be_me_ 1999_11_29_754_f 912 3 35 0 39 -45 45 left 1 3 /Users/lab/Documents/experiments/2019/surprise/stim/5_noeffect.mov 550 15-May-2019 12:25:45 2.657600e+02 -1.547540e+01 0 0
be_me_ 1999_11_29_754_f 912 3 36 0 67 -45 45 left 1 3 /Users/lab/Documents/experiments/2019/surprise/stim/9_noeffect.mov 709 15-May-2019 12:26:06 2.659281e+02 -2.166059e+02 0 1
be_me_ 1999_11_29_754_f 912 3 37 0 46 45 -45 right 1 3 /Users/lab/Documents/experiments/2019/surprise/stim/6_noeffect.mov 655 15-May-2019 12:26:09 -2.754018e+02 4.649032e+02 0 0
be_me_ 1999_11_29_754_f 912 3 38 0 40 -45 -45 left 1 3 /Users/lab/Documents/experiments/2019/surprise/stim/5_noeffect.mov 1168 15-May-2019 12:26:13 -9.708435e+01 -8.904488e+01 0 0
be_me_ 1999_11_29_754_f 912 3 39 0 29 45 45 right 1 3 /Users/lab/Documents/experiments/2019/surprise/stim/4_noeffect.mov 585 15-May-2019 12:26:16 -9.498012e+01 2.671626e+02 0 0
be_me_ 1999_11_29_754_f 912 3 40 0 73 45 45 right 1 3 /Users/lab/Documents/experiments/2019/surprise/stim/9_noeffect.mov 712 15-May-2019 12:26:38 2.333970e+02 -6.994497e+00 0 1
be_me_ 1999_11_29_754_f 912 3 41 0 26 45 -45 right 1 3 /Users/lab/Documents/experiments/2019/surprise/stim/4_noeffect.mov 571 15-May-2019 12:26:41 -2.512432e+01 3.504950e+02 0 0
be_me_ 1999_11_29_754_f 912 3 42 0 2 45 -45 right 1 3 /Users/lab/Documents/experiments/2019/surprise/stim/1_noeffect.mov 508 15-May-2019 12:26:43 1.951653e+01 5.881573e+01 0 0
be_me_ 1999_11_29_754_f 912 3 43 0 48 -45 -45 left 1 3 /Users/lab/Documents/experiments/2019/surprise/stim/6_noeffect.mov 1034 15-May-2019 12:26:47 4.622775e+02 -4.331201e+02 0 0
be_me_ 1999_11_29_754_f 912 3 44 0 49 45 45 right 1 3 /Users/lab/Documents/experiments/2019/surprise/stim/7_noeffect.mov 671 15-May-2019 12:27:06 -4.595833e+02 -4.111136e+02 0 1
be_me_ 1999_11_29_754_f 912 3 45 0 75 -45 45 left 1 3 /Users/lab/Documents/experiments/2019/surprise/stim/9_noeffect.mov 524 15-May-2019 12:27:09 3.408754e+02 -1.423486e+02 0 0
be_me_ 1999_11_29_754_f 912 3 46 0 10 45 -45 right 1 3 /Users/lab/Documents/experiments/2019/surprise/stim/2_noeffect.mov 614 15-May-2019 12:27:12 3.862188e+02 -3.975838e+02 0 0
be_me_ 1999_11_29_754_f 912 3 47 0 69 45 45 right 1 3 /Users/lab/Documents/experiments/2019/surprise/stim/9_noeffect.mov 745 15-May-2019 12:27:15 2.306194e+02 -4.052982e+01 0 0
be_me_ 1999_11_29_754_f 912 3 48 0 6 45 -45 right 1 3 /Users/lab/Documents/experiments/2019/surprise/stim/1_noeffect.mov 640 15-May-2019 12:27:40 4.198367e+02 1.273359e+02 0 1
be_me_ 1999_11_29_754_f 912 3 49 0 79 -45 45 left 1 3 /Users/lab/Documents/experiments/2019/surprise/stim/9_noeffect.mov 458 15-May-2019 12:27:42 -2.441856e+02 -1.453527e+02 0 0
be_me_ 1999_11_29_754_f 912 3 50 0 61 45 45 right 1 3 /Users/lab/Documents/experiments/2019/surprise/stim/8_noeffect.mov 536 15-May-2019 12:27:45 6.156553e+01 2.623247e+02 0 0
be_me_ 1999_11_29_754_f 912 3 51 0 25 45 45 right 1 3 /Users/lab/Documents/experiments/2019/surprise/stim/4_noeffect.mov 494 15-May-2019 12:27:48 2.741942e+01 -3.980457e+02 0 0
be_me_ 1999_11_29_754_f 912 3 52 0 1 45 45 right 1 3 /Users/lab/Documents/experiments/2019/surprise/stim/1_noeffect.mov 835 15-May-2019 12:28:13 -4.372708e+02 2.581127e+02 0 1
be_me_ 1999_11_29_754_f 912 3 53 0 70 45 -45 right 1 3 /Users/lab/Documents/experiments/2019/surprise/stim/9_noeffect.mov 799 15-May-2019 12:28:16 4.553656e+02 -1.840747e+02 0 0
be_me_ 1999_11_29_754_f 912 3 54 0 17 45 45 right 1 3 /Users/lab/Documents/experiments/2019/surprise/stim/2_noeffect.mov 920 15-May-2019 12:28:20 -3.563836e+02 -2.453676e+02 0 0
be_me_ 1999_11_29_754_f 912 3 55 0 30 45 -45 right 1 3 /Users/lab/Documents/experiments/2019/surprise/stim/4_noeffect.mov 562 15-May-2019 12:28:23 4.491000e+02 -2.927173e+01 0 0
be_me_ 1999_11_29_754_f 912 3 56 0 68 -45 -45 left 1 3 /Users/lab/Documents/experiments/2019/surprise/stim/9_noeffect.mov 859 15-May-2019 12:28:44 3.622371e+02 -2.815620e+02 0 1
be_me_ 1999_11_29_754_f 912 3 57 0 18 45 -45 right 1 3 /Users/lab/Documents/experiments/2019/surprise/stim/2_noeffect.mov 560 15-May-2019 12:28:47 2.629743e+01 -4.808272e+02 0 0
be_me_ 1999_11_29_754_f 912 3 58 0 4 -45 -45 left 1 3 /Users/lab/Documents/experiments/2019/surprise/stim/1_noeffect.mov 973 15-May-2019 12:28:51 -4.801289e+02 -3.866236e+02 0 0
be_me_ 1999_11_29_754_f 912 3 59 0 65 45 45 right 1 3 /Users/lab/Documents/experiments/2019/surprise/stim/9_noeffect.mov 648 15-May-2019 12:28:54 -1.626249e+02 4.430994e+02 0 0
be_me_ 1999_11_29_754_f 912 3 60 0 42 45 -45 right 1 3 /Users/lab/Documents/experiments/2019/surprise/stim/6_noeffect.mov 632 15-May-2019 12:29:08 -3.479865e+02 4.153944e+02 0 1
be_me_ 1999_11_29_754_f 912 3 61 0 15 -45 45 left 1 3 /Users/lab/Documents/experiments/2019/surprise/stim/2_noeffect.mov 646 15-May-2019 12:29:11 -1.788879e+02 1.399848e+02 0 0
be_me_ 1999_11_29_754_f 912 3 62 0 22 45 -45 right 1 3 /Users/lab/Documents/experiments/2019/surprise/stim/3_noeffect.mov 918 15-May-2019 12:29:15 -3.641621e+02 3.830968e+02 0 0
be_me_ 1999_11_29_754_f 912 3 63 0 52 -45 -45 left 1 3 /Users/lab/Documents/experiments/2019/surprise/stim/7_noeffect.mov 817 15-May-2019 12:29:18 -3.182608e+02 -4.317687e+01 0 0
be_me_ 1999_11_29_754_f 912 3 64 0 12 -45 -45 left 1 3 /Users/lab/Documents/experiments/2019/surprise/stim/2_noeffect.mov 797 15-May-2019 12:29:43 -4.671532e+02 -6.707694e+01 0 1
be_me_ 1999_11_29_754_f 912 3 65 0 80 -45 -45 left 1 3 /Users/lab/Documents/experiments/2019/surprise/stim/9_noeffect.mov 505 15-May-2019 12:29:46 -1.313831e+02 3.593348e+02 0 0
be_me_ 1999_11_29_754_f 912 3 66 0 55 -45 45 left 1 3 /Users/lab/Documents/experiments/2019/surprise/stim/7_noeffect.mov 679 15-May-2019 12:29:49 2.929858e+02 -4.739340e+02 0 0
be_me_ 1999_11_29_754_f 912 3 67 0 72 -45 -45 left 1 3 /Users/lab/Documents/experiments/2019/surprise/stim/9_noeffect.mov 757 15-May-2019 12:29:52 9.514006e+00 2.807889e+02 0 0
be_me_ 1999_11_29_754_f 912 3 68 0 45 45 45 right 1 3 /Users/lab/Documents/experiments/2019/surprise/stim/6_noeffect.mov 708 15-May-2019 12:30:06 1.703931e+02 -3.192406e+02 0 1
be_me_ 1999_11_29_754_f 912 3 69 0 54 45 -45 right 1 3 /Users/lab/Documents/experiments/2019/surprise/stim/7_noeffect.mov 522 15-May-2019 12:30:09 4.195218e+02 -5.035427e+01 0 0
be_me_ 1999_11_29_754_f 912 3 70 0 60 -45 -45 left 1 3 /Users/lab/Documents/experiments/2019/surprise/stim/8_noeffect.mov 507 15-May-2019 12:30:12 1.545546e+02 2.936627e+02 0 0
be_me_ 1999_11_29_754_f 912 3 71 0 11 -45 45 left 1 3 /Users/lab/Documents/experiments/2019/surprise/stim/2_noeffect.mov 473 15-May-2019 12:30:15 -1.519673e+02 3.352720e+02 0 0
be_me_ 1999_11_29_754_f 912 3 72 0 33 45 45 right 1 3 /Users/lab/Documents/experiments/2019/surprise/stim/5_noeffect.mov 686 15-May-2019 12:30:32 -5.596295e+01 2.609507e+02 0 1
be_me_ 1999_11_29_754_f 912 3 73 0 20 -45 -45 left 1 3 /Users/lab/Documents/experiments/2019/surprise/stim/2_noeffect.mov 960 15-May-2019 12:30:35 -3.821861e+02 3.368522e+02 0 0
be_me_ 1999_11_29_754_f 912 3 74 0 78 45 -45 right 1 3 /Users/lab/Documents/experiments/2019/surprise/stim/9_noeffect.mov 649 15-May-2019 12:30:38 4.986045e+02 2.708867e+02 0 0
be_me_ 1999_11_29_754_f 912 3 75 0 36 -45 -45 left 1 3 /Users/lab/Documents/experiments/2019/surprise/stim/5_noeffect.mov 663 15-May-2019 12:30:41 2.344252e+02 -3.721580e+02 0 0
be_me_ 1999_11_29_754_f 912 3 76 0 5 45 45 right 1 3 /Users/lab/Documents/experiments/2019/surprise/stim/1_noeffect.mov 786 15-May-2019 12:31:06 -4.417826e+02 -5.806348e+01 0 1
be_me_ 1999_11_29_754_f 912 3 77 0 74 45 -45 right 1 3 /Users/lab/Documents/experiments/2019/surprise/stim/9_noeffect.mov 477 15-May-2019 12:31:09 -3.755387e+02 4.339708e+02 0 0
be_me_ 1999_11_29_754_f 912 3 78 0 71 -45 45 left 1 3 /Users/lab/Documents/experiments/2019/surprise/stim/9_noeffect.mov 617 15-May-2019 12:31:11 -3.176197e+02 -3.400412e+02 0 0
be_me_ 1999_11_29_754_f 912 3 79 0 34 45 -45 right 1 3 /Users/lab/Documents/experiments/2019/surprise/stim/5_noeffect.mov 587 15-May-2019 12:31:14 -3.050663e+01 1.247646e+02 0 0
be_me_ 1999_11_29_754_f 912 3 80 0 14 45 -45 right 1 3 /Users/lab/Documents/experiments/2019/surprise/stim/2_noeffect.mov 589 15-May-2019 12:31:17 3.085159e+02 -4.062333e+02 0 0
