subject_name subjectNumber iTrial unshuffled_trial targetOrientation flankersOrientation response correct onscreen_stim_duration magicShows rt date time_of_day deltaX deltaY surpriseClip isClipTrial
93sf22_f19 43 1 38 45 -45 right 1 5.000000e-01 /Users/lab/Documents/surprise_project/surprise/stim/5_noeffect.mov 610 14-Mar-2018 11:23:34 -4.514782e+01 -3.963905e+02 0 1
93sf22_f19 43 2 67 -45 45 right 0 5.000000e-01 /Users/lab/Documents/surprise_project/surprise/stim/9_effect.mov 518 14-Mar-2018 11:23:37 2.497257e+02 3.553088e+02 1 0
93sf22_f19 43 3 22 45 -45 right 1 5.000000e-01 /Users/lab/Documents/surprise_project/surprise/stim/3_noeffect.mov 582 14-Mar-2018 11:23:40 -4.241291e+02 -2.245126e+02 0 0
93sf22_f19 43 4 14 45 -45 right 1 5.000000e-01 /Users/lab/Documents/surprise_project/surprise/stim/2_noeffect.mov 647 14-Mar-2018 11:24:05 -4.453468e+02 -2.701942e+02 0 1
93sf22_f19 43 5 59 -45 45 left 1 5.000000e-01 /Users/lab/Documents/surprise_project/surprise/stim/8_effect.mov 534 14-Mar-2018 11:24:07 4.182729e+01 -1.849455e+02 1 0
93sf22_f19 43 6 18 45 -45 right 1 5.000000e-01 /Users/lab/Documents/surprise_project/surprise/stim/3_effect.mov 516 14-Mar-2018 11:24:10 -4.130254e+02 3.282384e+01 1 0
93sf22_f19 43 7 19 -45 45 left 1 5.000000e-01 /Users/lab/Documents/surprise_project/surprise/stim/3_effect.mov 585 14-Mar-2018 11:24:13 3.582788e+02 -4.718379e+02 1 0
93sf22_f19 43 8 25 45 45 left 0 5.000000e-01 /Users/lab/Documents/surprise_project/surprise/stim/4_effect.mov 747 14-Mar-2018 11:24:30 4.025293e+02 2.899743e+01 1 1
93sf22_f19 43 9 36 -45 -45 left 1 5.000000e-01 /Users/lab/Documents/surprise_project/surprise/stim/5_effect.mov 850 14-Mar-2018 11:24:33 1.830405e+02 7.052413e+01 1 0
93sf22_f19 43 10 42 45 -45 right 1 5.000000e-01 /Users/lab/Documents/surprise_project/surprise/stim/6_effect.mov 600 14-Mar-2018 11:24:36 1.678422e+02 1.152705e+02 1 0
93sf22_f19 43 11 9 45 45 right 1 5.000000e-01 /Users/lab/Documents/surprise_project/surprise/stim/2_effect.mov 782 14-Mar-2018 11:24:40 1.686963e+02 -8.005237e+01 1 0
93sf22_f19 43 12 40 -45 -45 left 1 5.000000e-01 /Users/lab/Documents/surprise_project/surprise/stim/5_noeffect.mov 863 14-Mar-2018 11:24:56 -8.829587e+01 -1.571603e+02 0 1
93sf22_f19 43 13 55 -45 45 left 1 5.000000e-01 /Users/lab/Documents/surprise_project/surprise/stim/7_noeffect.mov 551 14-Mar-2018 11:24:59 -2.001254e+02 -6.191176e+01 0 0
93sf22_f19 43 14 3 -45 45 left 1 5.000000e-01 /Users/lab/Documents/surprise_project/surprise/stim/1_effect.mov 496 14-Mar-2018 11:25:02 -2.308685e+02 -3.781296e+01 1 0
93sf22_f19 43 15 34 45 -45 right 1 5.000000e-01 /Users/lab/Documents/surprise_project/surprise/stim/5_effect.mov 651 14-Mar-2018 11:25:05 2.295373e+02 -1.326257e+02 1 0
93sf22_f19 43 16 62 45 -45 right 1 5.000000e-01 /Users/lab/Documents/surprise_project/surprise/stim/8_noeffect.mov 645 14-Mar-2018 11:25:26 3.238813e+02 4.740230e+02 0 1
93sf22_f19 43 17 32 -45 -45 left 1 5.000000e-01 /Users/lab/Documents/surprise_project/surprise/stim/4_noeffect.mov 733 14-Mar-2018 11:25:29 1.504071e+02 -3.257980e+02 0 0
93sf22_f19 43 18 70 45 -45 right 1 5.000000e-01 /Users/lab/Documents/surprise_project/surprise/stim/9_noeffect.mov 535 14-Mar-2018 11:25:32 -3.081008e+02 4.394162e+02 0 0
93sf22_f19 43 19 11 -45 45 left 1 5.000000e-01 /Users/lab/Documents/surprise_project/surprise/stim/2_effect.mov 491 14-Mar-2018 11:25:35 -3.047312e+02 -6.984061e+01 1 0
93sf22_f19 43 20 21 45 45 left 0 5.000000e-01 /Users/lab/Documents/surprise_project/surprise/stim/3_noeffect.mov 764 14-Mar-2018 11:25:53 1.619344e+02 -6.610669e+01 0 1
93sf22_f19 43 21 26 45 -45 right 1 5.000000e-01 /Users/lab/Documents/surprise_project/surprise/stim/4_effect.mov 552 14-Mar-2018 11:25:56 -4.528724e+01 3.362630e+02 1 0
93sf22_f19 43 22 44 -45 -45 left 1 5.000000e-01 /Users/lab/Documents/surprise_project/surprise/stim/6_effect.mov 716 14-Mar-2018 11:25:59 5.611999e+01 -4.520904e+02 1 0
93sf22_f19 43 23 58 45 -45 right 1 5.000000e-01 /Users/lab/Documents/surprise_project/surprise/stim/8_effect.mov 550 14-Mar-2018 11:26:02 4.362337e+02 4.754269e+02 1 0
93sf22_f19 43 24 50 45 -45 right 1 5.000000e-01 /Users/lab/Documents/surprise_project/surprise/stim/7_effect.mov 645 14-Mar-2018 11:26:21 -1.043854e+02 2.644370e+02 1 1
93sf22_f19 43 25 69 45 45 left 0 5.000000e-01 /Users/lab/Documents/surprise_project/surprise/stim/9_noeffect.mov 849 14-Mar-2018 11:26:24 4.972633e+01 4.370184e+02 0 0
93sf22_f19 43 26 61 45 45 right 1 5.000000e-01 /Users/lab/Documents/surprise_project/surprise/stim/8_noeffect.mov 965 14-Mar-2018 11:26:27 -1.775103e+02 -4.727694e+02 0 0
93sf22_f19 43 27 72 -45 -45 left 1 5.000000e-01 /Users/lab/Documents/surprise_project/surprise/stim/9_noeffect.mov 765 14-Mar-2018 11:26:30 -4.372782e+02 -3.313772e+01 0 0
93sf22_f19 43 28 53 45 45 right 1 5.000000e-01 /Users/lab/Documents/surprise_project/surprise/stim/7_noeffect.mov 832 14-Mar-2018 11:26:50 4.160481e+02 4.123866e+02 0 1
93sf22_f19 43 29 5 45 45 right 1 5.000000e-01 /Users/lab/Documents/surprise_project/surprise/stim/1_noeffect.mov 785 14-Mar-2018 11:26:53 -1.449737e+02 1.125088e+02 1 0
93sf22_f19 43 30 24 -45 -45 right 0 5.000000e-01 /Users/lab/Documents/surprise_project/surprise/stim/3_noeffect.mov 549 14-Mar-2018 11:26:56 2.873723e+02 -4.799910e+02 0 0
93sf22_f19 43 31 65 45 45 right 1 5.000000e-01 /Users/lab/Documents/surprise_project/surprise/stim/9_effect.mov 734 14-Mar-2018 11:26:59 3.151785e+02 1.040805e+02 1 0
93sf22_f19 43 32 47 -45 45 left 1 5.000000e-01 /Users/lab/Documents/surprise_project/surprise/stim/6_noeffect.mov 681 14-Mar-2018 11:27:14 3.213212e+01 4.255114e+02 0 1
93sf22_f19 43 33 64 -45 -45 left 1 5.000000e-01 /Users/lab/Documents/surprise_project/surprise/stim/8_noeffect.mov 715 14-Mar-2018 11:27:17 1.680362e+02 1.992521e+02 0 0
93sf22_f19 43 34 63 -45 45 left 1 5.000000e-01 /Users/lab/Documents/surprise_project/surprise/stim/8_noeffect.mov 684 14-Mar-2018 11:27:20 -3.920203e+02 -4.472568e+02 0 0
93sf22_f19 43 35 49 45 45 right 1 5.000000e-01 /Users/lab/Documents/surprise_project/surprise/stim/7_effect.mov 733 14-Mar-2018 11:27:23 5.920922e+01 -4.388480e+02 1 0
93sf22_f19 43 36 8 -45 -45 left 1 5.000000e-01 /Users/lab/Documents/surprise_project/surprise/stim/1_noeffect.mov 896 14-Mar-2018 11:27:58 3.622267e+02 -2.218474e+02 1 1
93sf22_f19 43 37 41 45 45 right 1 5.000000e-01 /Users/lab/Documents/surprise_project/surprise/stim/6_effect.mov 684 14-Mar-2018 11:28:01 -4.550024e+02 -1.102202e+02 1 0
93sf22_f19 43 38 28 -45 -45 left 1 5.000000e-01 /Users/lab/Documents/surprise_project/surprise/stim/4_effect.mov 616 14-Mar-2018 11:28:04 -2.866130e+02 -4.894431e+02 1 0
93sf22_f19 43 39 23 -45 45 left 1 5.000000e-01 /Users/lab/Documents/surprise_project/surprise/stim/3_noeffect.mov 749 14-Mar-2018 11:28:07 4.879001e+02 -4.935773e+01 0 0
93sf22_f19 43 40 52 -45 -45 left 1 5.000000e-01 /Users/lab/Documents/surprise_project/surprise/stim/7_effect.mov 964 14-Mar-2018 11:28:36 -3.852566e+02 4.723180e+02 1 1
93sf22_f19 43 41 43 -45 45 left 1 5.000000e-01 /Users/lab/Documents/surprise_project/surprise/stim/6_effect.mov 530 14-Mar-2018 11:28:39 -7.538840e+01 -2.068452e+02 1 0
93sf22_f19 43 42 33 45 45 right 1 5.000000e-01 /Users/lab/Documents/surprise_project/surprise/stim/5_effect.mov 784 14-Mar-2018 11:28:42 -3.292299e+02 -4.224257e+02 1 0
93sf22_f19 43 43 2 45 -45 right 1 5.000000e-01 /Users/lab/Documents/surprise_project/surprise/stim/1_effect.mov 615 14-Mar-2018 11:28:45 -4.509885e+02 3.597929e+02 1 0
93sf22_f19 43 44 31 -45 45 left 1 5.000000e-01 /Users/lab/Documents/surprise_project/surprise/stim/4_noeffect.mov 728 14-Mar-2018 11:29:03 -3.374263e+02 -3.483887e+01 0 1
93sf22_f19 43 45 46 45 -45 right 1 5.000000e-01 /Users/lab/Documents/surprise_project/surprise/stim/6_noeffect.mov 568 14-Mar-2018 11:29:05 -3.624667e+02 -5.669247e+01 0 0
93sf22_f19 43 46 16 -45 -45 left 1 5.000000e-01 /Users/lab/Documents/surprise_project/surprise/stim/2_noeffect.mov 747 14-Mar-2018 11:29:08 -3.726100e+02 -3.824834e+02 0 0
93sf22_f19 43 47 27 -45 45 left 1 5.000000e-01 /Users/lab/Documents/surprise_project/surprise/stim/4_effect.mov 518 14-Mar-2018 11:29:11 1.929983e+02 -8.834692e+01 1 0
93sf22_f19 43 48 56 -45 -45 left 1 5.000000e-01 /Users/lab/Documents/surprise_project/surprise/stim/7_noeffect.mov 746 14-Mar-2018 11:29:30 -3.314825e+02 -2.391095e+02 0 1
93sf22_f19 43 49 45 45 45 right 1 5.000000e-01 /Users/lab/Documents/surprise_project/surprise/stim/6_noeffect.mov 662 14-Mar-2018 11:29:33 2.836246e+02 9.507139e+00 0 0
93sf22_f19 43 50 57 45 45 right 1 5.000000e-01 /Users/lab/Documents/surprise_project/surprise/stim/8_effect.mov 784 14-Mar-2018 11:29:37 1.922590e+02 -2.316516e+02 1 0
93sf22_f19 43 51 29 45 45 right 1 5.000000e-01 /Users/lab/Documents/surprise_project/surprise/stim/4_noeffect.mov 1098 14-Mar-2018 11:29:40 1.961365e+02 -6.893160e+01 0 0
93sf22_f19 43 52 60 -45 -45 left 1 5.000000e-01 /Users/lab/Documents/surprise_project/surprise/stim/8_effect.mov 779 14-Mar-2018 11:30:01 -2.977811e+02 -3.704718e+02 1 1
93sf22_f19 43 53 36 -45 45 left 1 5.000000e-01 /Users/lab/Documents/surprise_project/surprise/stim/5_effect.mov 567 14-Mar-2018 11:30:04 2.314606e+02 -2.784528e+02 1 0
93sf22_f19 43 54 7 -45 45 left 1 5.000000e-01 /Users/lab/Documents/surprise_project/surprise/stim/1_noeffect.mov 515 14-Mar-2018 11:30:07 -3.335020e+02 4.244738e+02 1 0
93sf22_f19 43 55 20 -45 -45 right 0 5.000000e-01 /Users/lab/Documents/surprise_project/surprise/stim/3_effect.mov 659 14-Mar-2018 11:30:10 4.142926e+02 4.658942e+02 1 0
93sf22_f19 43 56 13 45 45 right 1 5.000000e-01 /Users/lab/Documents/surprise_project/surprise/stim/2_noeffect.mov 780 14-Mar-2018 11:30:35 1.243943e+02 -8.187017e+00 0 1
93sf22_f19 43 57 30 45 -45 right 1 5.000000e-01 /Users/lab/Documents/surprise_project/surprise/stim/4_noeffect.mov 715 14-Mar-2018 11:30:38 -2.515679e+02 -3.523844e+02 0 0
93sf22_f19 43 58 37 45 45 left 0 5.000000e-01 /Users/lab/Documents/surprise_project/surprise/stim/5_noeffect.mov 551 14-Mar-2018 11:30:41 4.283522e+02 -4.731039e+02 0 0
93sf22_f19 43 59 10 45 -45 right 1 5.000000e-01 /Users/lab/Documents/surprise_project/surprise/stim/2_effect.mov 565 14-Mar-2018 11:30:43 -3.980305e+02 -4.751444e+02 1 0
93sf22_f19 43 60 48 -45 -45 left 1 5.000000e-01 /Users/lab/Documents/surprise_project/surprise/stim/6_noeffect.mov 1164 14-Mar-2018 11:30:59 -3.376873e+02 -4.460706e+02 0 1
93sf22_f19 43 61 51 -45 45 left 1 5.000000e-01 /Users/lab/Documents/surprise_project/surprise/stim/7_effect.mov 489 14-Mar-2018 11:31:02 -3.234362e+02 3.555750e+01 1 0
93sf22_f19 43 62 71 -45 45 left 1 5.000000e-01 /Users/lab/Documents/surprise_project/surprise/stim/9_noeffect.mov 437 14-Mar-2018 11:31:04 -1.900956e+02 -8.950347e+01 0 0
93sf22_f19 43 63 54 45 -45 right 1 5.000000e-01 /Users/lab/Documents/surprise_project/surprise/stim/7_noeffect.mov 567 14-Mar-2018 11:31:07 -1.415982e+02 -8.327457e+01 0 0
93sf22_f19 43 64 68 -45 -45 left 1 5.000000e-01 /Users/lab/Documents/surprise_project/surprise/stim/9_effect.mov 1146 14-Mar-2018 11:31:30 2.796878e+02 -2.779366e+02 1 1
93sf22_f19 43 65 1 45 45 right 1 5.000000e-01 /Users/lab/Documents/surprise_project/surprise/stim/1_effect.mov 764 14-Mar-2018 11:31:33 2.559192e+01 9.291627e+00 1 0
93sf22_f19 43 66 6 45 -45 right 1 5.000000e-01 /Users/lab/Documents/surprise_project/surprise/stim/1_noeffect.mov 496 14-Mar-2018 11:31:36 3.913065e+02 -1.955147e+02 1 0
93sf22_f19 43 67 17 45 45 right 1 5.000000e-01 /Users/lab/Documents/surprise_project/surprise/stim/3_effect.mov 614 14-Mar-2018 11:31:38 7.543840e+01 -2.319905e+02 1 0
93sf22_f19 43 68 15 -45 45 left 1 5.000000e-01 /Users/lab/Documents/surprise_project/surprise/stim/2_noeffect.mov 614 14-Mar-2018 11:32:03 -1.378041e+02 9.626202e+00 0 1
93sf22_f19 43 69 39 -45 45 left 1 5.000000e-01 /Users/lab/Documents/surprise_project/surprise/stim/5_noeffect.mov 552 14-Mar-2018 11:32:06 4.374824e+02 4.958189e+02 0 0
93sf22_f19 43 70 12 -45 -45 left 1 5.000000e-01 /Users/lab/Documents/surprise_project/surprise/stim/2_effect.mov 632 14-Mar-2018 11:32:09 -8.047947e+01 -4.547783e+02 1 0
93sf22_f19 43 71 4 -45 -45 left 1 5.000000e-01 /Users/lab/Documents/surprise_project/surprise/stim/1_effect.mov 751 14-Mar-2018 11:32:12 1.908389e+02 3.420308e+02 1 0
93sf22_f19 43 72 66 45 -45 right 1 5.000000e-01 /Users/lab/Documents/surprise_project/surprise/stim/9_effect.mov 666 14-Mar-2018 11:32:15 4.134001e+02 -1.871769e+02 1 0
