subject_name subjectNumber block iTrial unshuffled_trial targetOrientation flankersOrientation response correct onscreen_stim_duration magicShows rt date time_of_day deltaX deltaY surpriseClip isClipTrial isSurprise
so_sa_1996_12_06_831_f 859 3 1 0 68 -45 -45 NORESP 0 3 /Users/lab/Documents/experiments/2019/surprise/stim/9_noeffect.mov 3000 08-May-2019 12:43:55 2.944291e+02 -3.704044e+02 0 1
so_sa_1996_12_06_831_f 859 3 2 0 77 45 45 right 1 3 /Users/lab/Documents/experiments/2019/surprise/stim/9_noeffect.mov 2255 08-May-2019 12:43:59 1.384658e+02 -2.189880e+02 0 0
so_sa_1996_12_06_831_f 859 3 3 0 1 45 45 right 1 3 /Users/lab/Documents/experiments/2019/surprise/stim/1_noeffect.mov 836 08-May-2019 12:44:03 -3.111494e+02 3.428954e+02 0 0
so_sa_1996_12_06_831_f 859 3 4 0 23 -45 45 left 1 3 /Users/lab/Documents/experiments/2019/surprise/stim/3_noeffect.mov 2077 08-May-2019 12:44:22 4.511193e+02 1.042216e+02 0 1
so_sa_1996_12_06_831_f 859 3 5 0 25 45 45 right 1 3 /Users/lab/Documents/experiments/2019/surprise/stim/4_noeffect.mov 2001 08-May-2019 12:44:26 2.942849e+02 -5.011566e+01 0 0
so_sa_1996_12_06_831_f 859 3 6 0 55 -45 45 left 1 3 /Users/lab/Documents/experiments/2019/surprise/stim/7_noeffect.mov 2213 08-May-2019 12:44:31 -4.240287e+02 -3.708781e+01 0 0
so_sa_1996_12_06_831_f 859 3 7 0 30 45 -45 right 1 3 /Users/lab/Documents/experiments/2019/surprise/stim/4_noeffect.mov 1447 08-May-2019 12:44:35 -1.220549e+02 2.391459e+02 0 0
so_sa_1996_12_06_831_f 859 3 8 0 28 -45 -45 left 1 3 /Users/lab/Documents/experiments/2019/surprise/stim/4_noeffect.mov 1563 08-May-2019 12:44:53 4.221495e+01 2.572719e+02 0 1
so_sa_1996_12_06_831_f 859 3 9 0 14 45 -45 right 1 3 /Users/lab/Documents/experiments/2019/surprise/stim/2_noeffect.mov 788 08-May-2019 12:44:56 2.491695e+02 3.457411e+02 0 0
so_sa_1996_12_06_831_f 859 3 10 0 4 -45 -45 right 0 3 /Users/lab/Documents/experiments/2019/surprise/stim/1_noeffect.mov 1540 08-May-2019 12:45:00 2.928010e+02 -7.724417e+01 0 0
so_sa_1996_12_06_831_f 859 3 11 0 59 -45 45 left 1 3 /Users/lab/Documents/experiments/2019/surprise/stim/8_noeffect.mov 809 08-May-2019 12:45:03 1.151903e+02 4.731507e+02 0 0
so_sa_1996_12_06_831_f 859 3 12 0 71 -45 45 left 1 3 /Users/lab/Documents/experiments/2019/surprise/stim/9_noeffect.mov 1428 08-May-2019 12:45:26 1.855273e+02 -1.415345e+02 0 1
so_sa_1996_12_06_831_f 859 3 13 0 37 45 45 right 1 3 /Users/lab/Documents/experiments/2019/surprise/stim/5_noeffect.mov 731 08-May-2019 12:45:29 -1.768716e+02 -1.405662e+02 0 0
so_sa_1996_12_06_831_f 859 3 14 0 43 -45 45 left 1 3 /Users/lab/Documents/experiments/2019/surprise/stim/6_noeffect.mov 864 08-May-2019 12:45:32 -1.805413e+02 4.692291e+02 0 0
so_sa_1996_12_06_831_f 859 3 15 0 16 -45 -45 left 1 3 /Users/lab/Documents/experiments/2019/surprise/stim/2_noeffect.mov 615 08-May-2019 12:45:35 1.502843e+02 3.503322e+02 0 0
so_sa_1996_12_06_831_f 859 3 16 0 39 -45 45 left 1 3 /Users/lab/Documents/experiments/2019/surprise/stim/5_noeffect.mov 911 08-May-2019 12:45:52 -6.995328e+01 -4.571524e+02 0 1
so_sa_1996_12_06_831_f 859 3 17 0 36 -45 -45 left 1 3 /Users/lab/Documents/experiments/2019/surprise/stim/5_noeffect.mov 711 08-May-2019 12:45:55 -4.831270e+02 -3.864901e+02 0 0
so_sa_1996_12_06_831_f 859 3 18 0 60 -45 -45 left 1 3 /Users/lab/Documents/experiments/2019/surprise/stim/8_noeffect.mov 614 08-May-2019 12:45:57 3.677084e+02 3.984131e+02 0 0
so_sa_1996_12_06_831_f 859 3 19 0 31 -45 45 left 1 3 /Users/lab/Documents/experiments/2019/surprise/stim/4_noeffect.mov 571 08-May-2019 12:46:00 1.539085e+02 -2.565042e+02 0 0
so_sa_1996_12_06_831_f 859 3 20 0 35 -45 45 left 1 3 /Users/lab/Documents/experiments/2019/surprise/stim/5_noeffect.mov 879 08-May-2019 12:46:17 1.463491e+02 -1.800588e+02 0 1
so_sa_1996_12_06_831_f 859 3 21 0 33 45 45 left 0 3 /Users/lab/Documents/experiments/2019/surprise/stim/5_noeffect.mov 555 08-May-2019 12:46:20 6.689546e+01 -4.526958e+02 0 0
so_sa_1996_12_06_831_f 859 3 22 0 67 -45 45 left 1 3 /Users/lab/Documents/experiments/2019/surprise/stim/9_noeffect.mov 501 08-May-2019 12:46:23 2.952252e+01 -3.200218e+02 0 0
so_sa_1996_12_06_831_f 859 3 23 0 13 45 45 right 1 3 /Users/lab/Documents/experiments/2019/surprise/stim/2_noeffect.mov 691 08-May-2019 12:46:26 -1.353366e+02 -6.347877e+01 0 0
so_sa_1996_12_06_831_f 859 3 24 0 63 -45 45 left 1 3 /Users/lab/Documents/experiments/2019/surprise/stim/8_noeffect.mov 801 08-May-2019 12:46:47 -1.189990e+02 -3.154333e+02 0 1
so_sa_1996_12_06_831_f 859 3 25 0 32 -45 -45 left 1 3 /Users/lab/Documents/experiments/2019/surprise/stim/4_noeffect.mov 735 08-May-2019 12:46:50 -2.723915e+02 2.001777e+02 0 0
so_sa_1996_12_06_831_f 859 3 26 0 64 -45 -45 left 1 3 /Users/lab/Documents/experiments/2019/surprise/stim/8_noeffect.mov 557 08-May-2019 12:46:53 -1.650695e+02 -4.229984e+02 0 0
so_sa_1996_12_06_831_f 859 3 27 0 6 45 -45 right 1 3 /Users/lab/Documents/experiments/2019/surprise/stim/1_noeffect.mov 550 08-May-2019 12:46:55 -9.699771e+01 2.055478e+02 0 0
so_sa_1996_12_06_831_f 859 3 28 0 17 45 45 right 1 3 /Users/lab/Documents/experiments/2019/surprise/stim/2_noeffect.mov 746 08-May-2019 12:47:20 -2.045280e+02 -7.053412e+01 0 1
so_sa_1996_12_06_831_f 859 3 29 0 62 45 -45 right 1 3 /Users/lab/Documents/experiments/2019/surprise/stim/8_noeffect.mov 592 08-May-2019 12:47:23 3.038518e+02 6.057545e+01 0 0
so_sa_1996_12_06_831_f 859 3 30 0 15 -45 45 left 1 3 /Users/lab/Documents/experiments/2019/surprise/stim/2_noeffect.mov 573 08-May-2019 12:47:26 -3.017976e+02 -3.946455e+02 0 0
so_sa_1996_12_06_831_f 859 3 31 0 41 45 45 right 1 3 /Users/lab/Documents/experiments/2019/surprise/stim/6_noeffect.mov 572 08-May-2019 12:47:29 -3.753975e+02 -4.202737e+02 0 0
so_sa_1996_12_06_831_f 859 3 32 0 70 45 -45 right 1 3 /Users/lab/Documents/experiments/2019/surprise/stim/9_noeffect.mov 819 08-May-2019 12:47:51 4.996875e+02 -1.858716e+02 0 1
so_sa_1996_12_06_831_f 859 3 33 0 22 45 -45 right 1 3 /Users/lab/Documents/experiments/2019/surprise/stim/3_noeffect.mov 736 08-May-2019 12:47:54 -3.029226e+02 4.219119e+01 0 0
so_sa_1996_12_06_831_f 859 3 34 0 9 45 45 right 1 3 /Users/lab/Documents/experiments/2019/surprise/stim/2_noeffect.mov 577 08-May-2019 12:47:57 -4.871501e+02 3.947196e+02 0 0
so_sa_1996_12_06_831_f 859 3 35 0 5 45 45 right 1 3 /Users/lab/Documents/experiments/2019/surprise/stim/1_noeffect.mov 425 08-May-2019 12:47:59 1.157638e+02 7.344140e+01 0 0
so_sa_1996_12_06_831_f 859 3 36 0 34 45 -45 right 1 3 /Users/lab/Documents/experiments/2019/surprise/stim/5_noeffect.mov 755 08-May-2019 12:48:16 -4.085559e+02 4.573968e+02 0 1
so_sa_1996_12_06_831_f 859 3 37 0 80 -45 -45 left 1 3 /Users/lab/Documents/experiments/2019/surprise/stim/9_noeffect.mov 518 08-May-2019 12:48:19 4.165451e+02 1.015837e+02 0 0
so_sa_1996_12_06_831_f 859 3 38 0 19 -45 45 left 1 3 /Users/lab/Documents/experiments/2019/surprise/stim/2_noeffect.mov 580 08-May-2019 12:48:22 -1.696443e+02 -3.641072e+02 0 0
so_sa_1996_12_06_831_f 859 3 39 0 56 -45 -45 left 1 3 /Users/lab/Documents/experiments/2019/surprise/stim/7_noeffect.mov 541 08-May-2019 12:48:25 1.038438e+02 -3.259044e+02 0 0
so_sa_1996_12_06_831_f 859 3 40 0 74 45 -45 right 1 3 /Users/lab/Documents/experiments/2019/surprise/stim/9_noeffect.mov 704 08-May-2019 12:48:46 1.977695e+02 -9.702020e+01 0 1
so_sa_1996_12_06_831_f 859 3 41 0 18 45 -45 right 1 3 /Users/lab/Documents/experiments/2019/surprise/stim/2_noeffect.mov 579 08-May-2019 12:48:49 -4.894112e+02 3.632399e+02 0 0
so_sa_1996_12_06_831_f 859 3 42 0 65 45 45 right 1 3 /Users/lab/Documents/experiments/2019/surprise/stim/9_noeffect.mov 614 08-May-2019 12:48:52 3.597542e+02 2.601217e+02 0 0
so_sa_1996_12_06_831_f 859 3 43 0 75 -45 45 left 1 3 /Users/lab/Documents/experiments/2019/surprise/stim/9_noeffect.mov 558 08-May-2019 12:48:55 1.570122e+02 2.443007e+02 0 0
so_sa_1996_12_06_831_f 859 3 44 0 27 -45 45 left 1 3 /Users/lab/Documents/experiments/2019/surprise/stim/4_noeffect.mov 725 08-May-2019 12:49:12 -1.701996e+02 -4.648725e+02 0 1
so_sa_1996_12_06_831_f 859 3 45 0 51 -45 45 left 1 3 /Users/lab/Documents/experiments/2019/surprise/stim/7_noeffect.mov 631 08-May-2019 12:49:15 -1.378923e+02 1.168182e+02 0 0
so_sa_1996_12_06_831_f 859 3 46 0 58 45 -45 right 1 3 /Users/lab/Documents/experiments/2019/surprise/stim/8_noeffect.mov 644 08-May-2019 12:49:18 3.930238e+02 -4.152382e+02 0 0
so_sa_1996_12_06_831_f 859 3 47 0 69 45 45 right 1 3 /Users/lab/Documents/experiments/2019/surprise/stim/9_noeffect.mov 486 08-May-2019 12:49:21 -4.866237e-01 -1.457105e+01 0 0
so_sa_1996_12_06_831_f 859 3 48 0 2 45 -45 right 1 3 /Users/lab/Documents/experiments/2019/surprise/stim/1_noeffect.mov 1170 08-May-2019 12:49:46 2.102873e+02 -1.612325e+02 0 1
so_sa_1996_12_06_831_f 859 3 49 0 26 45 -45 right 1 3 /Users/lab/Documents/experiments/2019/surprise/stim/4_noeffect.mov 848 08-May-2019 12:49:49 -4.841535e+02 3.755630e+02 0 0
so_sa_1996_12_06_831_f 859 3 50 0 72 -45 -45 left 1 3 /Users/lab/Documents/experiments/2019/surprise/stim/9_noeffect.mov 629 08-May-2019 12:49:52 3.300824e+02 -9.192225e+01 0 0
so_sa_1996_12_06_831_f 859 3 51 0 46 45 -45 right 1 3 /Users/lab/Documents/experiments/2019/surprise/stim/6_noeffect.mov 534 08-May-2019 12:49:55 2.072903e+02 -3.637503e+02 0 0
so_sa_1996_12_06_831_f 859 3 52 0 49 45 45 right 1 3 /Users/lab/Documents/experiments/2019/surprise/stim/7_noeffect.mov 643 08-May-2019 12:50:14 -2.050595e+02 2.044058e+02 0 1
so_sa_1996_12_06_831_f 859 3 53 0 40 -45 -45 left 1 3 /Users/lab/Documents/experiments/2019/surprise/stim/5_noeffect.mov 811 08-May-2019 12:50:17 -3.639401e+02 2.325783e+02 0 0
so_sa_1996_12_06_831_f 859 3 54 0 21 45 45 right 1 3 /Users/lab/Documents/experiments/2019/surprise/stim/3_noeffect.mov 431 08-May-2019 12:50:20 2.009834e+02 -2.708836e+01 0 0
so_sa_1996_12_06_831_f 859 3 55 0 11 -45 45 left 1 3 /Users/lab/Documents/experiments/2019/surprise/stim/2_noeffect.mov 722 08-May-2019 12:50:23 1.129857e+02 3.494772e+02 0 0
so_sa_1996_12_06_831_f 859 3 56 0 44 -45 -45 left 1 3 /Users/lab/Documents/experiments/2019/surprise/stim/6_noeffect.mov 644 08-May-2019 12:50:37 4.022287e+02 -1.133938e+02 0 1
so_sa_1996_12_06_831_f 859 3 57 0 78 45 -45 right 1 3 /Users/lab/Documents/experiments/2019/surprise/stim/9_noeffect.mov 715 08-May-2019 12:50:40 3.754169e+02 3.517874e+02 0 0
so_sa_1996_12_06_831_f 859 3 58 0 61 45 45 right 1 3 /Users/lab/Documents/experiments/2019/surprise/stim/8_noeffect.mov 611 08-May-2019 12:50:43 -2.028497e+02 -3.869937e+02 0 0
so_sa_1996_12_06_831_f 859 3 59 0 47 -45 45 left 1 3 /Users/lab/Documents/experiments/2019/surprise/stim/6_noeffect.mov 590 08-May-2019 12:50:46 2.824160e+02 7.038778e+01 0 0
so_sa_1996_12_06_831_f 859 3 60 0 10 45 -45 right 1 3 /Users/lab/Documents/experiments/2019/surprise/stim/2_noeffect.mov 681 08-May-2019 12:51:11 7.377023e+01 1.067071e+02 0 1
so_sa_1996_12_06_831_f 859 3 61 0 53 45 45 right 1 3 /Users/lab/Documents/experiments/2019/surprise/stim/7_noeffect.mov 528 08-May-2019 12:51:14 -4.719244e+02 2.047462e+02 0 0
so_sa_1996_12_06_831_f 859 3 62 0 3 -45 45 left 1 3 /Users/lab/Documents/experiments/2019/surprise/stim/1_noeffect.mov 510 08-May-2019 12:51:16 -2.000469e+02 -3.495049e+01 0 0
so_sa_1996_12_06_831_f 859 3 63 0 54 45 -45 right 1 3 /Users/lab/Documents/experiments/2019/surprise/stim/7_noeffect.mov 466 08-May-2019 12:51:19 -3.683666e+01 -4.337517e+02 0 0
so_sa_1996_12_06_831_f 859 3 64 0 8 -45 -45 left 1 3 /Users/lab/Documents/experiments/2019/surprise/stim/1_noeffect.mov 726 08-May-2019 12:51:44 -3.862837e+02 3.944993e+02 0 1
so_sa_1996_12_06_831_f 859 3 65 0 48 -45 -45 left 1 3 /Users/lab/Documents/experiments/2019/surprise/stim/6_noeffect.mov 535 08-May-2019 12:51:47 -2.403782e+02 -4.558909e+01 0 0
so_sa_1996_12_06_831_f 859 3 66 0 50 45 -45 right 1 3 /Users/lab/Documents/experiments/2019/surprise/stim/7_noeffect.mov 529 08-May-2019 12:51:50 -3.816643e+02 4.080404e+02 0 0
so_sa_1996_12_06_831_f 859 3 67 0 24 -45 -45 left 1 3 /Users/lab/Documents/experiments/2019/surprise/stim/3_noeffect.mov 382 08-May-2019 12:51:52 -2.004662e+02 -1.784436e+02 0 0
so_sa_1996_12_06_831_f 859 3 68 0 42 45 -45 right 1 3 /Users/lab/Documents/experiments/2019/surprise/stim/6_noeffect.mov 701 08-May-2019 12:52:07 -4.875703e+02 5.500571e+00 0 1
so_sa_1996_12_06_831_f 859 3 69 0 12 -45 -45 right 0 3 /Users/lab/Documents/experiments/2019/surprise/stim/2_noeffect.mov 646 08-May-2019 12:52:10 1.903477e+02 -6.491601e+00 0 0
so_sa_1996_12_06_831_f 859 3 70 0 7 -45 45 left 1 3 /Users/lab/Documents/experiments/2019/surprise/stim/1_noeffect.mov 629 08-May-2019 12:52:13 1.986241e+02 1.105295e+02 0 0
so_sa_1996_12_06_831_f 859 3 71 0 52 -45 -45 left 1 3 /Users/lab/Documents/experiments/2019/surprise/stim/7_noeffect.mov 597 08-May-2019 12:52:16 4.532643e+02 -4.712034e+02 0 0
so_sa_1996_12_06_831_f 859 3 72 0 76 -45 -45 left 1 3 /Users/lab/Documents/experiments/2019/surprise/stim/9_noeffect.mov 707 08-May-2019 12:52:38 1.854855e+02 -2.808961e+02 0 1
so_sa_1996_12_06_831_f 859 3 73 0 66 45 -45 right 1 3 /Users/lab/Documents/experiments/2019/surprise/stim/9_noeffect.mov 718 08-May-2019 12:52:41 1.824057e+02 2.878949e+02 0 0
so_sa_1996_12_06_831_f 859 3 74 0 29 45 45 right 1 3 /Users/lab/Documents/experiments/2019/surprise/stim/4_noeffect.mov 601 08-May-2019 12:52:44 -4.748655e+02 4.453499e+02 0 0
so_sa_1996_12_06_831_f 859 3 75 0 73 45 45 right 1 3 /Users/lab/Documents/experiments/2019/surprise/stim/9_noeffect.mov 558 08-May-2019 12:52:46 6.209223e+01 -4.686471e+02 0 0
so_sa_1996_12_06_831_f 859 3 76 0 57 45 45 right 1 3 /Users/lab/Documents/experiments/2019/surprise/stim/8_noeffect.mov 687 08-May-2019 12:53:07 -1.211418e+02 -4.531745e+02 0 1
so_sa_1996_12_06_831_f 859 3 77 0 20 -45 -45 left 1 3 /Users/lab/Documents/experiments/2019/surprise/stim/2_noeffect.mov 660 08-May-2019 12:53:10 1.265587e+02 2.263882e+02 0 0
so_sa_1996_12_06_831_f 859 3 78 0 45 45 45 right 1 3 /Users/lab/Documents/experiments/2019/surprise/stim/6_noeffect.mov 549 08-May-2019 12:53:13 -8.185905e+01 2.981643e+02 0 0
so_sa_1996_12_06_831_f 859 3 79 0 38 45 -45 right 1 3 /Users/lab/Documents/experiments/2019/surprise/stim/5_noeffect.mov 485 08-May-2019 12:53:16 -4.481925e+02 3.347280e+02 0 0
so_sa_1996_12_06_831_f 859 3 80 0 79 -45 45 left 1 3 /Users/lab/Documents/experiments/2019/surprise/stim/9_noeffect.mov 532 08-May-2019 12:53:19 -2.866409e+02 -2.128360e+02 0 0
