subject_name subjectNumber block iTrial unshuffled_trial targetOrientation flankersOrientation response correct onscreen_stim_duration magicShows rt date time_of_day deltaX deltaY surpriseClip isClipTrial isSurprise
so_pi_1997_11_13_844_f 758 3 1 0 74 45 -45 right 1 3 /Users/lab/Documents/experiments/2019/surprise/stim/9_noeffect.mov 582 15-Apr-2019 16:34:53 2.030393e+01 -3.271772e+02 0 1
so_pi_1997_11_13_844_f 758 3 2 0 64 -45 -45 left 1 3 /Users/lab/Documents/experiments/2019/surprise/stim/8_noeffect.mov 495 15-Apr-2019 16:34:56 1.801841e+02 -1.860748e+02 0 0
so_pi_1997_11_13_844_f 758 3 3 0 45 45 45 right 1 3 /Users/lab/Documents/experiments/2019/surprise/stim/6_noeffect.mov 524 15-Apr-2019 16:34:59 -4.475557e+02 2.651218e+02 0 0
so_pi_1997_11_13_844_f 758 3 4 0 58 45 -45 right 1 3 /Users/lab/Documents/experiments/2019/surprise/stim/8_noeffect.mov 654 15-Apr-2019 16:35:20 -1.766800e+02 3.474482e+02 0 1
so_pi_1997_11_13_844_f 758 3 5 0 75 -45 45 left 1 3 /Users/lab/Documents/experiments/2019/surprise/stim/9_noeffect.mov 515 15-Apr-2019 16:35:23 1.617428e+02 -3.558110e+01 0 0
so_pi_1997_11_13_844_f 758 3 6 0 15 -45 45 left 1 3 /Users/lab/Documents/experiments/2019/surprise/stim/2_noeffect.mov 569 15-Apr-2019 16:35:26 3.246455e+02 -3.129487e+02 0 0
so_pi_1997_11_13_844_f 758 3 7 0 11 -45 45 left 1 3 /Users/lab/Documents/experiments/2019/surprise/stim/2_noeffect.mov 723 15-Apr-2019 16:35:29 -2.212605e+02 4.975816e+02 0 0
so_pi_1997_11_13_844_f 758 3 8 0 9 45 45 right 1 3 /Users/lab/Documents/experiments/2019/surprise/stim/2_noeffect.mov 600 15-Apr-2019 16:35:54 1.547885e+02 4.031521e+02 0 1
so_pi_1997_11_13_844_f 758 3 9 0 73 45 45 right 1 3 /Users/lab/Documents/experiments/2019/surprise/stim/9_noeffect.mov 489 15-Apr-2019 16:35:56 2.454351e+02 1.477590e+02 0 0
so_pi_1997_11_13_844_f 758 3 10 0 23 -45 45 left 1 3 /Users/lab/Documents/experiments/2019/surprise/stim/3_noeffect.mov 568 15-Apr-2019 16:35:59 7.528867e-01 -1.936607e+02 0 0
so_pi_1997_11_13_844_f 758 3 11 0 4 -45 -45 left 1 3 /Users/lab/Documents/experiments/2019/surprise/stim/1_noeffect.mov 666 15-Apr-2019 16:36:02 4.522375e+02 -1.201209e+02 0 0
so_pi_1997_11_13_844_f 758 3 12 0 68 -45 -45 left 1 3 /Users/lab/Documents/experiments/2019/surprise/stim/9_noeffect.mov 571 15-Apr-2019 16:36:24 -1.076840e+02 -3.959876e+02 0 1
so_pi_1997_11_13_844_f 758 3 13 0 50 45 -45 right 1 3 /Users/lab/Documents/experiments/2019/surprise/stim/7_noeffect.mov 581 15-Apr-2019 16:36:27 3.046391e+02 -3.475301e+02 0 0
so_pi_1997_11_13_844_f 758 3 14 0 38 45 -45 right 1 3 /Users/lab/Documents/experiments/2019/surprise/stim/5_noeffect.mov 550 15-Apr-2019 16:36:30 -5.563400e+01 -3.957067e+02 0 0
so_pi_1997_11_13_844_f 758 3 15 0 66 45 -45 left 0 3 /Users/lab/Documents/experiments/2019/surprise/stim/9_noeffect.mov 344 15-Apr-2019 16:36:33 -2.019227e+02 1.720896e+02 0 0
so_pi_1997_11_13_844_f 758 3 16 0 34 45 -45 right 1 3 /Users/lab/Documents/experiments/2019/surprise/stim/5_noeffect.mov 623 15-Apr-2019 16:36:49 -5.468118e+01 -2.001700e+02 0 1
so_pi_1997_11_13_844_f 758 3 17 0 77 45 45 right 1 3 /Users/lab/Documents/experiments/2019/surprise/stim/9_noeffect.mov 610 15-Apr-2019 16:36:52 -3.218182e+02 -4.652455e+02 0 0
so_pi_1997_11_13_844_f 758 3 18 0 36 -45 -45 left 1 3 /Users/lab/Documents/experiments/2019/surprise/stim/5_noeffect.mov 596 15-Apr-2019 16:36:55 2.259042e+01 -5.078396e+01 0 0
so_pi_1997_11_13_844_f 758 3 19 0 48 -45 -45 left 1 3 /Users/lab/Documents/experiments/2019/surprise/stim/6_noeffect.mov 870 15-Apr-2019 16:36:58 -3.348072e+02 7.677958e+01 0 0
so_pi_1997_11_13_844_f 758 3 20 0 76 -45 -45 left 1 3 /Users/lab/Documents/experiments/2019/surprise/stim/9_noeffect.mov 654 15-Apr-2019 16:37:20 -4.763101e+02 6.524840e+01 0 1
so_pi_1997_11_13_844_f 758 3 21 0 51 -45 45 left 1 3 /Users/lab/Documents/experiments/2019/surprise/stim/7_noeffect.mov 538 15-Apr-2019 16:37:23 2.120430e+02 -4.352245e+02 0 0
so_pi_1997_11_13_844_f 758 3 22 0 63 -45 45 left 1 3 /Users/lab/Documents/experiments/2019/surprise/stim/8_noeffect.mov 505 15-Apr-2019 16:37:26 2.981826e+02 3.683231e+02 0 0
so_pi_1997_11_13_844_f 758 3 23 0 47 -45 45 left 1 3 /Users/lab/Documents/experiments/2019/surprise/stim/6_noeffect.mov 445 15-Apr-2019 16:37:29 -2.276150e+02 -8.243511e+00 0 0
so_pi_1997_11_13_844_f 758 3 24 0 65 45 45 right 1 3 /Users/lab/Documents/experiments/2019/surprise/stim/9_noeffect.mov 808 15-Apr-2019 16:37:51 -1.575569e+02 2.162919e+02 0 1
so_pi_1997_11_13_844_f 758 3 25 0 59 -45 45 left 1 3 /Users/lab/Documents/experiments/2019/surprise/stim/8_noeffect.mov 493 15-Apr-2019 16:37:54 1.477454e+02 -1.248756e+02 0 0
so_pi_1997_11_13_844_f 758 3 26 0 6 45 -45 right 1 3 /Users/lab/Documents/experiments/2019/surprise/stim/1_noeffect.mov 744 15-Apr-2019 16:37:57 2.916411e+02 -3.793945e+02 0 0
so_pi_1997_11_13_844_f 758 3 27 0 17 45 45 right 1 3 /Users/lab/Documents/experiments/2019/surprise/stim/2_noeffect.mov 511 15-Apr-2019 16:38:00 -5.466855e-01 1.084890e+01 0 0
so_pi_1997_11_13_844_f 758 3 28 0 28 -45 -45 left 1 3 /Users/lab/Documents/experiments/2019/surprise/stim/4_noeffect.mov 989 15-Apr-2019 16:38:17 1.976230e+02 -8.026495e+01 0 1
so_pi_1997_11_13_844_f 758 3 29 0 5 45 45 right 1 3 /Users/lab/Documents/experiments/2019/surprise/stim/1_noeffect.mov 497 15-Apr-2019 16:38:20 4.704081e+02 4.226945e+02 0 0
so_pi_1997_11_13_844_f 758 3 30 0 8 -45 -45 left 1 3 /Users/lab/Documents/experiments/2019/surprise/stim/1_noeffect.mov 478 15-Apr-2019 16:38:23 4.013206e+02 -1.079167e+02 0 0
so_pi_1997_11_13_844_f 758 3 31 0 13 45 45 right 1 3 /Users/lab/Documents/experiments/2019/surprise/stim/2_noeffect.mov 531 15-Apr-2019 16:38:26 1.707056e+02 -1.981267e+00 0 0
so_pi_1997_11_13_844_f 758 3 32 0 57 45 45 right 1 3 /Users/lab/Documents/experiments/2019/surprise/stim/8_noeffect.mov 560 15-Apr-2019 16:38:47 3.536709e+02 2.268157e+02 0 1
so_pi_1997_11_13_844_f 758 3 33 0 55 -45 45 left 1 3 /Users/lab/Documents/experiments/2019/surprise/stim/7_noeffect.mov 664 15-Apr-2019 16:38:50 2.428340e-01 4.114792e+02 0 0
so_pi_1997_11_13_844_f 758 3 34 0 62 45 -45 right 1 3 /Users/lab/Documents/experiments/2019/surprise/stim/8_noeffect.mov 511 15-Apr-2019 16:38:52 2.818333e+02 1.458714e+02 0 0
so_pi_1997_11_13_844_f 758 3 35 0 24 -45 -45 left 1 3 /Users/lab/Documents/experiments/2019/surprise/stim/3_noeffect.mov 475 15-Apr-2019 16:38:55 -4.085738e+01 -3.462365e+02 0 0
so_pi_1997_11_13_844_f 758 3 36 0 20 -45 -45 left 1 3 /Users/lab/Documents/experiments/2019/surprise/stim/2_noeffect.mov 626 15-Apr-2019 16:39:20 -3.785815e+02 -4.737549e+02 0 1
so_pi_1997_11_13_844_f 758 3 37 0 26 45 -45 right 1 3 /Users/lab/Documents/experiments/2019/surprise/stim/4_noeffect.mov 606 15-Apr-2019 16:39:23 -9.026129e+01 -2.973750e+02 0 0
so_pi_1997_11_13_844_f 758 3 38 0 70 45 -45 right 1 3 /Users/lab/Documents/experiments/2019/surprise/stim/9_noeffect.mov 845 15-Apr-2019 16:39:26 -4.975979e+02 -2.923387e+02 0 0
so_pi_1997_11_13_844_f 758 3 39 0 25 45 45 right 1 3 /Users/lab/Documents/experiments/2019/surprise/stim/4_noeffect.mov 504 15-Apr-2019 16:39:29 -1.525444e+01 3.730586e+02 0 0
so_pi_1997_11_13_844_f 758 3 40 0 67 -45 45 left 1 3 /Users/lab/Documents/experiments/2019/surprise/stim/9_noeffect.mov 963 15-Apr-2019 16:39:51 1.901554e+02 -2.396337e+01 0 1
so_pi_1997_11_13_844_f 758 3 41 0 3 -45 45 left 1 3 /Users/lab/Documents/experiments/2019/surprise/stim/1_noeffect.mov 494 15-Apr-2019 16:39:54 1.532390e+02 2.991321e+02 0 0
so_pi_1997_11_13_844_f 758 3 42 0 78 45 -45 right 1 3 /Users/lab/Documents/experiments/2019/surprise/stim/9_noeffect.mov 666 15-Apr-2019 16:39:57 2.024805e+02 3.533272e+02 0 0
so_pi_1997_11_13_844_f 758 3 43 0 2 45 -45 right 1 3 /Users/lab/Documents/experiments/2019/surprise/stim/1_noeffect.mov 545 15-Apr-2019 16:39:59 4.514147e+02 -1.521391e+02 0 0
so_pi_1997_11_13_844_f 758 3 44 0 18 45 -45 right 1 3 /Users/lab/Documents/experiments/2019/surprise/stim/2_noeffect.mov 763 15-Apr-2019 16:40:24 1.446327e+02 -1.999038e+02 0 1
so_pi_1997_11_13_844_f 758 3 45 0 33 45 45 right 1 3 /Users/lab/Documents/experiments/2019/surprise/stim/5_noeffect.mov 566 15-Apr-2019 16:40:27 7.109647e+01 -2.422235e+02 0 0
so_pi_1997_11_13_844_f 758 3 46 0 37 45 45 right 1 3 /Users/lab/Documents/experiments/2019/surprise/stim/5_noeffect.mov 382 15-Apr-2019 16:40:30 6.320502e+01 5.567188e+01 0 0
so_pi_1997_11_13_844_f 758 3 47 0 46 45 -45 right 1 3 /Users/lab/Documents/experiments/2019/surprise/stim/6_noeffect.mov 745 15-Apr-2019 16:40:33 3.227196e+02 7.118640e+01 0 0
so_pi_1997_11_13_844_f 758 3 48 0 69 45 45 right 1 3 /Users/lab/Documents/experiments/2019/surprise/stim/9_noeffect.mov 1012 15-Apr-2019 16:40:55 -4.282990e+02 -4.267938e+02 0 1
so_pi_1997_11_13_844_f 758 3 49 0 39 -45 45 left 1 3 /Users/lab/Documents/experiments/2019/surprise/stim/5_noeffect.mov 535 15-Apr-2019 16:40:58 -1.100662e+02 -3.564210e+02 0 0
so_pi_1997_11_13_844_f 758 3 50 0 41 45 45 right 1 3 /Users/lab/Documents/experiments/2019/surprise/stim/6_noeffect.mov 525 15-Apr-2019 16:41:01 4.562316e+02 4.763763e+02 0 0
so_pi_1997_11_13_844_f 758 3 51 0 30 45 -45 right 1 3 /Users/lab/Documents/experiments/2019/surprise/stim/4_noeffect.mov 512 15-Apr-2019 16:41:03 3.930508e+02 -9.738443e+01 0 0
so_pi_1997_11_13_844_f 758 3 52 0 79 -45 45 left 1 3 /Users/lab/Documents/experiments/2019/surprise/stim/9_noeffect.mov 608 15-Apr-2019 16:41:25 1.069672e+02 -3.604945e+02 0 1
so_pi_1997_11_13_844_f 758 3 53 0 52 -45 -45 left 1 3 /Users/lab/Documents/experiments/2019/surprise/stim/7_noeffect.mov 435 15-Apr-2019 16:41:28 3.528532e+02 -3.745603e+02 0 0
so_pi_1997_11_13_844_f 758 3 54 0 40 -45 -45 left 1 3 /Users/lab/Documents/experiments/2019/surprise/stim/5_noeffect.mov 461 15-Apr-2019 16:41:31 4.348391e+02 -2.121439e+02 0 0
so_pi_1997_11_13_844_f 758 3 55 0 1 45 45 right 1 3 /Users/lab/Documents/experiments/2019/surprise/stim/1_noeffect.mov 623 15-Apr-2019 16:41:34 3.871066e+02 -1.003938e+01 0 0
so_pi_1997_11_13_844_f 758 3 56 0 44 -45 -45 left 1 3 /Users/lab/Documents/experiments/2019/surprise/stim/6_noeffect.mov 958 15-Apr-2019 16:41:49 -4.472315e+02 -6.223219e+01 0 1
so_pi_1997_11_13_844_f 758 3 57 0 35 -45 45 left 1 3 /Users/lab/Documents/experiments/2019/surprise/stim/5_noeffect.mov 534 15-Apr-2019 16:41:52 3.364003e+02 2.305730e+02 0 0
so_pi_1997_11_13_844_f 758 3 58 0 61 45 45 left 0 3 /Users/lab/Documents/experiments/2019/surprise/stim/8_noeffect.mov 565 15-Apr-2019 16:41:54 -2.611848e+02 -3.171973e+02 0 0
so_pi_1997_11_13_844_f 758 3 59 0 14 45 -45 right 1 3 /Users/lab/Documents/experiments/2019/surprise/stim/2_noeffect.mov 586 15-Apr-2019 16:41:57 4.619014e+02 -9.769903e+01 0 0
so_pi_1997_11_13_844_f 758 3 60 0 31 -45 45 left 1 3 /Users/lab/Documents/experiments/2019/surprise/stim/4_noeffect.mov 810 15-Apr-2019 16:42:15 -2.434398e+02 8.467903e+01 0 1
so_pi_1997_11_13_844_f 758 3 61 0 29 45 45 right 1 3 /Users/lab/Documents/experiments/2019/surprise/stim/4_noeffect.mov 441 15-Apr-2019 16:42:17 3.168862e+02 -1.489938e+02 0 0
so_pi_1997_11_13_844_f 758 3 62 0 53 45 45 right 1 3 /Users/lab/Documents/experiments/2019/surprise/stim/7_noeffect.mov 612 15-Apr-2019 16:42:20 1.305550e+02 -4.698001e+02 0 0
so_pi_1997_11_13_844_f 758 3 63 0 32 -45 -45 left 1 3 /Users/lab/Documents/experiments/2019/surprise/stim/4_noeffect.mov 711 15-Apr-2019 16:42:23 -4.824228e+01 -2.876256e+02 0 0
so_pi_1997_11_13_844_f 758 3 64 0 49 45 45 right 1 3 /Users/lab/Documents/experiments/2019/surprise/stim/7_noeffect.mov 814 15-Apr-2019 16:42:42 -2.546447e+02 -1.902487e+02 0 1
so_pi_1997_11_13_844_f 758 3 65 0 7 -45 45 left 1 3 /Users/lab/Documents/experiments/2019/surprise/stim/1_noeffect.mov 495 15-Apr-2019 16:42:45 -1.933452e+02 3.798418e+01 0 0
so_pi_1997_11_13_844_f 758 3 66 0 22 45 -45 right 1 3 /Users/lab/Documents/experiments/2019/surprise/stim/3_noeffect.mov 627 15-Apr-2019 16:42:48 -3.557576e+02 4.123817e+02 0 0
so_pi_1997_11_13_844_f 758 3 67 0 54 45 -45 right 1 3 /Users/lab/Documents/experiments/2019/surprise/stim/7_noeffect.mov 455 15-Apr-2019 16:42:51 1.230582e+02 -1.221872e+02 0 0
so_pi_1997_11_13_844_f 758 3 68 0 19 -45 45 left 1 3 /Users/lab/Documents/experiments/2019/surprise/stim/2_noeffect.mov 639 15-Apr-2019 16:43:16 -2.096208e+02 -9.078445e+01 0 1
so_pi_1997_11_13_844_f 758 3 69 0 60 -45 -45 left 1 3 /Users/lab/Documents/experiments/2019/surprise/stim/8_noeffect.mov 459 15-Apr-2019 16:43:18 1.509355e+02 -4.061909e+02 0 0
so_pi_1997_11_13_844_f 758 3 70 0 71 -45 45 left 1 3 /Users/lab/Documents/experiments/2019/surprise/stim/9_noeffect.mov 477 15-Apr-2019 16:43:21 2.614979e+02 6.462398e+01 0 0
so_pi_1997_11_13_844_f 758 3 71 0 80 -45 -45 left 1 3 /Users/lab/Documents/experiments/2019/surprise/stim/9_noeffect.mov 447 15-Apr-2019 16:43:24 3.407668e+02 -1.869337e+02 0 0
so_pi_1997_11_13_844_f 758 3 72 0 21 45 45 right 1 3 /Users/lab/Documents/experiments/2019/surprise/stim/3_noeffect.mov 1100 15-Apr-2019 16:43:43 1.393377e+02 -4.346073e+02 0 1
so_pi_1997_11_13_844_f 758 3 73 0 10 45 -45 right 1 3 /Users/lab/Documents/experiments/2019/surprise/stim/2_noeffect.mov 483 15-Apr-2019 16:43:45 -1.375664e+02 -2.860188e+02 0 0
so_pi_1997_11_13_844_f 758 3 74 0 43 -45 45 left 1 3 /Users/lab/Documents/experiments/2019/surprise/stim/6_noeffect.mov 514 15-Apr-2019 16:43:48 1.568392e+02 -2.336390e+02 0 0
so_pi_1997_11_13_844_f 758 3 75 0 27 -45 45 left 1 3 /Users/lab/Documents/experiments/2019/surprise/stim/4_noeffect.mov 595 15-Apr-2019 16:43:51 2.521627e+02 -3.475522e+02 0 0
so_pi_1997_11_13_844_f 758 3 76 0 42 45 -45 right 1 3 /Users/lab/Documents/experiments/2019/surprise/stim/6_noeffect.mov 674 15-Apr-2019 16:44:06 1.435001e+02 1.705601e+02 0 1
so_pi_1997_11_13_844_f 758 3 77 0 72 -45 -45 left 1 3 /Users/lab/Documents/experiments/2019/surprise/stim/9_noeffect.mov 498 15-Apr-2019 16:44:09 4.549750e+02 -3.389378e+02 0 0
so_pi_1997_11_13_844_f 758 3 78 0 16 -45 -45 left 1 3 /Users/lab/Documents/experiments/2019/surprise/stim/2_noeffect.mov 520 15-Apr-2019 16:44:12 -3.324087e+00 3.771832e+02 0 0
so_pi_1997_11_13_844_f 758 3 79 0 56 -45 -45 left 1 3 /Users/lab/Documents/experiments/2019/surprise/stim/7_noeffect.mov 486 15-Apr-2019 16:44:14 1.471988e+02 -4.953971e+02 0 0
so_pi_1997_11_13_844_f 758 3 80 0 12 -45 -45 left 1 3 /Users/lab/Documents/experiments/2019/surprise/stim/2_noeffect.mov 808 15-Apr-2019 16:44:18 -3.787199e+02 1.770675e+02 0 0
