subject_name subjectNumber block iTrial unshuffled_trial targetOrientation flankersOrientation response correct onscreen_stim_duration magicShows rt date time_of_day deltaX deltaY surpriseClip isClipTrial isSurprise
ca_ro_1996_12_13_249_f 844 3 1 1 56 -45 -45 NORESP 0 3 /Users/lab/Documents/experiments/2019/surprise/stim/7_noeffect.mov 3000 07-May-2019 11:08:20 2.010165e+02 -2.646734e+02 0 1
ca_ro_1996_12_13_249_f 844 3 2 1 30 45 -45 NORESP 0 3 /Users/lab/Documents/experiments/2019/surprise/stim/4_noeffect.mov 2999 07-May-2019 11:08:25 -4.522524e+02 2.415765e+02 0 0
ca_ro_1996_12_13_249_f 844 3 3 1 42 45 -45 NORESP 0 3 /Users/lab/Documents/experiments/2019/surprise/stim/6_effect.mov 2999 07-May-2019 11:08:30 4.928388e+02 -2.586531e+02 1 0
ca_ro_1996_12_13_249_f 844 3 4 1 40 -45 -45 NORESP 0 3 /Users/lab/Documents/experiments/2019/surprise/stim/5_noeffect.mov 2999 07-May-2019 11:08:49 -3.462954e+02 3.091819e+02 0 1
ca_ro_1996_12_13_249_f 844 3 5 1 28 -45 -45 NORESP 0 3 /Users/lab/Documents/experiments/2019/surprise/stim/4_effect.mov 2999 07-May-2019 11:08:54 2.453405e+02 2.186597e+01 1 0
ca_ro_1996_12_13_249_f 844 3 6 1 72 -45 -45 NORESP 0 3 /Users/lab/Documents/experiments/2019/surprise/stim/9_noeffect.mov 3000 07-May-2019 11:08:59 3.573518e+02 2.693743e+02 0 0
ca_ro_1996_12_13_249_f 844 3 7 1 36 -45 -45 NORESP 0 3 /Users/lab/Documents/experiments/2019/surprise/stim/5_effect.mov 3000 07-May-2019 11:09:05 -4.173022e+02 2.675006e+02 1 0
ca_ro_1996_12_13_249_f 844 3 8 1 26 45 -45 NORESP 0 3 /Users/lab/Documents/experiments/2019/surprise/stim/4_effect.mov 2998 07-May-2019 11:09:24 -2.171800e+01 3.156460e+02 1 1
ca_ro_1996_12_13_249_f 844 3 9 1 29 45 45 NORESP 0 3 /Users/lab/Documents/experiments/2019/surprise/stim/4_noeffect.mov 2999 07-May-2019 11:09:29 5.707605e+01 -1.938038e+02 0 0
ca_ro_1996_12_13_249_f 844 3 10 1 70 45 -45 NORESP 0 3 /Users/lab/Documents/experiments/2019/surprise/stim/9_noeffect.mov 3000 07-May-2019 11:09:34 3.419827e+02 1.080258e+02 0 0
ca_ro_1996_12_13_249_f 844 3 11 1 7 -45 45 NORESP 0 3 /Users/lab/Documents/experiments/2019/surprise/stim/1_noeffect.mov 2999 07-May-2019 11:09:40 7.849735e+01 -4.111328e+02 1 0
ca_ro_1996_12_13_249_f 844 3 12 1 58 45 -45 NORESP 0 3 /Users/lab/Documents/experiments/2019/surprise/stim/8_effect.mov 2999 07-May-2019 11:10:03 1.394924e+02 -1.623342e+02 1 1
ca_ro_1996_12_13_249_f 844 3 13 1 64 -45 -45 NORESP 0 3 /Users/lab/Documents/experiments/2019/surprise/stim/8_noeffect.mov 2999 07-May-2019 11:10:08 1.507931e+02 3.829084e+01 0 0
ca_ro_1996_12_13_249_f 844 3 14 1 32 -45 -45 NORESP 0 3 /Users/lab/Documents/experiments/2019/surprise/stim/4_noeffect.mov 2999 07-May-2019 11:10:13 -4.104262e+02 -1.585293e+01 0 0
ca_ro_1996_12_13_249_f 844 3 15 1 27 -45 45 NORESP 0 3 /Users/lab/Documents/experiments/2019/surprise/stim/4_effect.mov 2998 07-May-2019 11:10:18 8.420939e+01 -1.248120e+02 1 0
ca_ro_1996_12_13_249_f 844 3 16 1 23 -45 45 NORESP 0 3 /Users/lab/Documents/experiments/2019/surprise/stim/3_noeffect.mov 2999 07-May-2019 11:10:39 2.278524e+01 -1.421423e+02 0 1
ca_ro_1996_12_13_249_f 844 3 17 1 44 -45 -45 NORESP 0 3 /Users/lab/Documents/experiments/2019/surprise/stim/6_effect.mov 3000 07-May-2019 11:10:44 3.060501e+02 1.267795e+02 1 0
ca_ro_1996_12_13_249_f 844 3 18 1 46 45 -45 NORESP 0 3 /Users/lab/Documents/experiments/2019/surprise/stim/6_noeffect.mov 2999 07-May-2019 11:10:49 4.387433e+02 1.385903e+02 0 0
ca_ro_1996_12_13_249_f 844 3 19 1 3 -45 45 NORESP 0 3 /Users/lab/Documents/experiments/2019/surprise/stim/1_effect.mov 2999 07-May-2019 11:10:55 2.669756e+02 2.422870e+01 1 0
ca_ro_1996_12_13_249_f 844 3 20 1 52 -45 -45 NORESP 0 3 /Users/lab/Documents/experiments/2019/surprise/stim/7_effect.mov 3000 07-May-2019 11:11:26 -1.205265e+02 -2.112990e+01 1 1
ca_ro_1996_12_13_249_f 844 3 21 1 57 45 45 NORESP 0 3 /Users/lab/Documents/experiments/2019/surprise/stim/8_effect.mov 3000 07-May-2019 11:11:31 3.400055e+02 -3.862094e+02 1 0
ca_ro_1996_12_13_249_f 844 3 22 1 59 -45 45 NORESP 0 3 /Users/lab/Documents/experiments/2019/surprise/stim/8_effect.mov 2999 07-May-2019 11:11:36 4.600268e+02 -6.210124e+01 1 0
ca_ro_1996_12_13_249_f 844 3 23 1 69 45 45 NORESP 0 3 /Users/lab/Documents/experiments/2019/surprise/stim/9_noeffect.mov 3000 07-May-2019 11:11:42 -3.657903e+02 -4.055531e+02 0 0
ca_ro_1996_12_13_249_f 844 3 24 1 22 45 -45 NORESP 0 3 /Users/lab/Documents/experiments/2019/surprise/stim/3_noeffect.mov 2999 07-May-2019 11:12:02 4.069319e+00 1.696373e+02 0 1
ca_ro_1996_12_13_249_f 844 3 25 1 68 -45 -45 NORESP 0 3 /Users/lab/Documents/experiments/2019/surprise/stim/9_effect.mov 2999 07-May-2019 11:12:07 5.725109e+01 -2.133869e+02 1 0
ca_ro_1996_12_13_249_f 844 3 26 1 50 45 -45 NORESP 0 3 /Users/lab/Documents/experiments/2019/surprise/stim/7_effect.mov 3000 07-May-2019 11:12:12 2.187475e+02 4.277449e+02 1 0
ca_ro_1996_12_13_249_f 844 3 27 1 11 -45 45 NORESP 0 3 /Users/lab/Documents/experiments/2019/surprise/stim/2_effect.mov 3000 07-May-2019 11:12:18 2.828346e+02 2.942653e+02 1 0
ca_ro_1996_12_13_249_f 844 3 28 1 18 45 -45 NORESP 0 3 /Users/lab/Documents/experiments/2019/surprise/stim/3_effect.mov 2998 07-May-2019 11:12:38 3.538941e+02 1.747565e+02 1 1
ca_ro_1996_12_13_249_f 844 3 29 1 36 -45 45 NORESP 0 3 /Users/lab/Documents/experiments/2019/surprise/stim/5_effect.mov 3000 07-May-2019 11:12:43 3.790469e+02 -2.775324e+02 1 0
ca_ro_1996_12_13_249_f 844 3 30 1 6 45 -45 NORESP 0 3 /Users/lab/Documents/experiments/2019/surprise/stim/1_noeffect.mov 3000 07-May-2019 11:12:49 4.148080e+02 -3.228724e+02 1 0
ca_ro_1996_12_13_249_f 844 3 31 1 5 45 45 NORESP 0 3 /Users/lab/Documents/experiments/2019/surprise/stim/1_noeffect.mov 2999 07-May-2019 11:12:54 3.974964e+02 4.044822e+02 1 0
ca_ro_1996_12_13_249_f 844 3 32 1 9 45 45 NORESP 0 3 /Users/lab/Documents/experiments/2019/surprise/stim/2_effect.mov 2999 07-May-2019 11:13:21 -5.158835e+01 3.630863e+02 1 1
ca_ro_1996_12_13_249_f 844 3 33 1 49 45 45 NORESP 0 3 /Users/lab/Documents/experiments/2019/surprise/stim/7_effect.mov 2999 07-May-2019 11:13:27 2.620405e+02 2.393940e+02 1 0
ca_ro_1996_12_13_249_f 844 3 34 1 67 -45 45 NORESP 0 3 /Users/lab/Documents/experiments/2019/surprise/stim/9_effect.mov 3000 07-May-2019 11:13:32 -2.544524e+02 -3.772207e+02 1 0
ca_ro_1996_12_13_249_f 844 3 35 1 63 -45 45 NORESP 0 3 /Users/lab/Documents/experiments/2019/surprise/stim/8_noeffect.mov 2999 07-May-2019 11:13:37 3.650052e+02 -2.653108e+02 0 0
ca_ro_1996_12_13_249_f 844 3 36 1 71 -45 45 NORESP 0 3 /Users/lab/Documents/experiments/2019/surprise/stim/9_noeffect.mov 3000 07-May-2019 11:14:01 -2.872287e+02 -4.029994e+02 0 1
ca_ro_1996_12_13_249_f 844 3 37 1 33 45 45 NORESP 0 3 /Users/lab/Documents/experiments/2019/surprise/stim/5_effect.mov 3000 07-May-2019 11:14:06 7.109118e+01 3.647768e+02 1 0
ca_ro_1996_12_13_249_f 844 3 38 1 51 -45 45 NORESP 0 3 /Users/lab/Documents/experiments/2019/surprise/stim/7_effect.mov 2999 07-May-2019 11:14:11 -4.060000e+01 -4.641763e+02 1 0
ca_ro_1996_12_13_249_f 844 3 39 1 20 -45 -45 NORESP 0 3 /Users/lab/Documents/experiments/2019/surprise/stim/3_effect.mov 2999 07-May-2019 11:14:17 4.771301e+02 4.100634e+01 1 0
ca_ro_1996_12_13_249_f 844 3 40 1 4 -45 -45 NORESP 0 3 /Users/lab/Documents/experiments/2019/surprise/stim/1_effect.mov 2999 07-May-2019 11:14:44 -1.590612e+02 -3.642333e+02 1 1
ca_ro_1996_12_13_249_f 844 3 41 1 47 -45 45 NORESP 0 3 /Users/lab/Documents/experiments/2019/surprise/stim/6_noeffect.mov 2999 07-May-2019 11:14:49 1.238581e+02 4.483413e+02 0 0
ca_ro_1996_12_13_249_f 844 3 42 1 14 45 -45 NORESP 0 3 /Users/lab/Documents/experiments/2019/surprise/stim/2_noeffect.mov 2999 07-May-2019 11:14:54 -1.935270e+02 -2.701569e+01 0 0
ca_ro_1996_12_13_249_f 844 3 43 1 43 -45 45 NORESP 0 3 /Users/lab/Documents/experiments/2019/surprise/stim/6_effect.mov 3000 07-May-2019 11:14:59 3.510535e+02 3.275912e+02 1 0
ca_ro_1996_12_13_249_f 844 3 44 1 1 45 45 NORESP 0 3 /Users/lab/Documents/experiments/2019/surprise/stim/1_effect.mov 2998 07-May-2019 11:15:27 -3.099908e+02 -3.931177e+02 1 1
ca_ro_1996_12_13_249_f 844 3 45 1 25 45 45 NORESP 0 3 /Users/lab/Documents/experiments/2019/surprise/stim/4_effect.mov 2999 07-May-2019 11:15:32 -4.513685e+02 -1.049477e+02 1 0
ca_ro_1996_12_13_249_f 844 3 46 1 54 45 -45 NORESP 0 3 /Users/lab/Documents/experiments/2019/surprise/stim/7_noeffect.mov 2998 07-May-2019 11:15:37 4.474762e+02 -2.003218e+02 0 0
ca_ro_1996_12_13_249_f 844 3 47 1 31 -45 45 NORESP 0 3 /Users/lab/Documents/experiments/2019/surprise/stim/4_noeffect.mov 3000 07-May-2019 11:15:42 -4.850322e+02 4.896822e+02 0 0
ca_ro_1996_12_13_249_f 844 3 48 1 24 -45 -45 NORESP 0 3 /Users/lab/Documents/experiments/2019/surprise/stim/3_noeffect.mov 2999 07-May-2019 11:16:03 -3.447587e+02 1.038869e+00 0 1
ca_ro_1996_12_13_249_f 844 3 49 1 10 45 -45 NORESP 0 3 /Users/lab/Documents/experiments/2019/surprise/stim/2_effect.mov 2999 07-May-2019 11:16:08 -2.287322e+02 2.280383e+02 1 0
ca_ro_1996_12_13_249_f 844 3 50 1 19 -45 45 NORESP 0 3 /Users/lab/Documents/experiments/2019/surprise/stim/3_effect.mov 2998 07-May-2019 11:16:13 -3.718748e+02 -3.025776e+02 1 0
ca_ro_1996_12_13_249_f 844 3 51 1 2 45 -45 NORESP 0 3 /Users/lab/Documents/experiments/2019/surprise/stim/1_effect.mov 3000 07-May-2019 11:16:18 -1.922726e+02 -4.885209e+02 1 0
ca_ro_1996_12_13_249_f 844 3 52 1 55 -45 45 NORESP 0 3 /Users/lab/Documents/experiments/2019/surprise/stim/7_noeffect.mov 2999 07-May-2019 11:16:40 -6.989583e+01 1.936896e+02 0 1
ca_ro_1996_12_13_249_f 844 3 53 1 45 45 45 NORESP 0 3 /Users/lab/Documents/experiments/2019/surprise/stim/6_noeffect.mov 2999 07-May-2019 11:16:45 -3.843452e+01 -2.571879e+02 0 0
ca_ro_1996_12_13_249_f 844 3 54 1 12 -45 -45 NORESP 0 3 /Users/lab/Documents/experiments/2019/surprise/stim/2_effect.mov 3000 07-May-2019 11:16:50 -4.898847e+02 -4.854829e+02 1 0
ca_ro_1996_12_13_249_f 844 3 55 1 21 45 45 NORESP 0 3 /Users/lab/Documents/experiments/2019/surprise/stim/3_noeffect.mov 2999 07-May-2019 11:16:55 1.600565e+02 -3.567700e+01 0 0
ca_ro_1996_12_13_249_f 844 3 56 1 17 45 45 NORESP 0 3 /Users/lab/Documents/experiments/2019/surprise/stim/3_effect.mov 3000 07-May-2019 11:17:16 2.908526e+02 2.850209e+02 1 1
ca_ro_1996_12_13_249_f 844 3 57 1 39 -45 45 NORESP 0 3 /Users/lab/Documents/experiments/2019/surprise/stim/5_noeffect.mov 2999 07-May-2019 11:17:21 2.344760e+02 2.452872e+02 0 0
ca_ro_1996_12_13_249_f 844 3 58 1 65 45 45 NORESP 0 3 /Users/lab/Documents/experiments/2019/surprise/stim/9_effect.mov 2999 07-May-2019 11:17:26 -1.266692e+02 4.477187e+02 1 0
ca_ro_1996_12_13_249_f 844 3 59 1 60 -45 -45 NORESP 0 3 /Users/lab/Documents/experiments/2019/surprise/stim/8_effect.mov 2999 07-May-2019 11:17:31 4.511867e+02 4.673345e+02 1 0
ca_ro_1996_12_13_249_f 844 3 60 1 53 45 45 NORESP 0 3 /Users/lab/Documents/experiments/2019/surprise/stim/7_noeffect.mov 2998 07-May-2019 11:17:53 2.735834e+01 1.574905e+02 0 1
ca_ro_1996_12_13_249_f 844 3 61 1 16 -45 -45 NORESP 0 3 /Users/lab/Documents/experiments/2019/surprise/stim/2_noeffect.mov 2998 07-May-2019 11:17:58 -8.036491e+01 -3.491946e+02 0 0
ca_ro_1996_12_13_249_f 844 3 62 1 13 45 45 NORESP 0 3 /Users/lab/Documents/experiments/2019/surprise/stim/2_noeffect.mov 3000 07-May-2019 11:18:03 -3.051409e+02 -4.388135e+02 0 0
ca_ro_1996_12_13_249_f 844 3 63 1 38 45 -45 NORESP 0 3 /Users/lab/Documents/experiments/2019/surprise/stim/5_noeffect.mov 2998 07-May-2019 11:18:08 3.914804e+02 2.068142e+02 0 0
ca_ro_1996_12_13_249_f 844 3 64 1 8 -45 -45 NORESP 0 3 /Users/lab/Documents/experiments/2019/surprise/stim/1_noeffect.mov 2999 07-May-2019 11:18:35 -3.279440e+02 -3.087046e+02 1 1
ca_ro_1996_12_13_249_f 844 3 65 1 37 45 45 NORESP 0 3 /Users/lab/Documents/experiments/2019/surprise/stim/5_noeffect.mov 3000 07-May-2019 11:18:41 2.144639e+02 -2.954843e+02 0 0
ca_ro_1996_12_13_249_f 844 3 66 1 34 45 -45 NORESP 0 3 /Users/lab/Documents/experiments/2019/surprise/stim/5_effect.mov 3000 07-May-2019 11:18:46 2.710476e+02 3.945771e+02 1 0
ca_ro_1996_12_13_249_f 844 3 67 1 61 45 45 NORESP 0 3 /Users/lab/Documents/experiments/2019/surprise/stim/8_noeffect.mov 3000 07-May-2019 11:18:51 -3.352170e+02 -2.635038e+02 0 0
ca_ro_1996_12_13_249_f 844 3 68 1 48 -45 -45 NORESP 0 3 /Users/lab/Documents/experiments/2019/surprise/stim/6_noeffect.mov 2999 07-May-2019 11:19:08 -3.273733e+02 -3.100923e+02 0 1
ca_ro_1996_12_13_249_f 844 3 69 1 15 -45 45 NORESP 0 3 /Users/lab/Documents/experiments/2019/surprise/stim/2_noeffect.mov 2999 07-May-2019 11:19:13 -1.035686e+02 4.751781e+02 0 0
ca_ro_1996_12_13_249_f 844 3 70 1 41 45 45 NORESP 0 3 /Users/lab/Documents/experiments/2019/surprise/stim/6_effect.mov 2999 07-May-2019 11:19:18 1.373937e+02 1.960798e+02 1 0
ca_ro_1996_12_13_249_f 844 3 71 1 66 45 -45 NORESP 0 3 /Users/lab/Documents/experiments/2019/surprise/stim/9_effect.mov 2999 07-May-2019 11:19:24 -4.649659e+02 3.644518e+02 1 0
ca_ro_1996_12_13_249_f 844 3 72 1 62 45 -45 NORESP 0 3 /Users/lab/Documents/experiments/2019/surprise/stim/8_noeffect.mov 2999 07-May-2019 11:19:29 -2.912357e+02 4.389564e+02 0 0
