subject_name subjectNumber iTrial unshuffled_trial targetOrientation flankersOrientation response correct onscreen_stim_duration magicShows rt date time_of_day deltaX deltaY surpriseClip isClipTrial
28GM25_F19 3 1 49 45 45 right 1 5.000000e-01 /Users/lab/Documents/magic3Definitivo/stim/7_effect.mov 677 05-May-2017 17:05:10 4.728579e+02 3.917551e+02 1 1
28GM25_F19 3 2 80 -45 -45 left 1 5.000000e-01 /Users/lab/Documents/magic3Definitivo/stim/10_noeffect.mov 609 05-May-2017 17:05:13 2.559478e+02 1.850258e+02 0 0
28GM25_F19 3 3 26 45 -45 right 1 5.000000e-01 /Users/lab/Documents/magic3Definitivo/stim/4_effect.mov 707 05-May-2017 17:05:16 2.634343e+02 -2.852950e+02 1 0
28GM25_F19 3 4 74 45 -45 right 1 5.000000e-01 /Users/lab/Documents/magic3Definitivo/stim/10_effect.mov 796 05-May-2017 17:05:31 -2.904248e+02 -1.142365e+02 1 1
28GM25_F19 3 5 18 45 -45 right 1 5.000000e-01 /Users/lab/Documents/magic3Definitivo/stim/3_effect.mov 539 05-May-2017 17:05:33 -4.352868e+02 -4.694448e+02 1 0
28GM25_F19 3 6 5 45 45 right 1 5.000000e-01 /Users/lab/Documents/magic3Definitivo/stim/1_noeffect.mov 383 05-May-2017 17:05:36 -2.286128e+02 -3.700703e+02 1 0
28GM25_F19 3 7 42 45 -45 right 1 5.000000e-01 /Users/lab/Documents/magic3Definitivo/stim/6_effect.mov 528 05-May-2017 17:05:39 3.919492e+02 2.075756e+02 1 0
28GM25_F19 3 8 28 -45 -45 left 1 5.000000e-01 /Users/lab/Documents/magic3Definitivo/stim/4_effect.mov 777 05-May-2017 17:05:56 -3.413361e+02 -1.735401e+02 1 1
28GM25_F19 3 9 48 -45 -45 left 1 5.000000e-01 /Users/lab/Documents/magic3Definitivo/stim/6_noeffect.mov 745 05-May-2017 17:05:59 -3.809666e+02 1.574591e+02 0 0
28GM25_F19 3 10 11 -45 45 left 1 5.000000e-01 /Users/lab/Documents/magic3Definitivo/stim/2_effect.mov 711 05-May-2017 17:06:02 4.644317e+02 2.923856e+02 1 0
28GM25_F19 3 11 25 45 45 right 1 5.000000e-01 /Users/lab/Documents/magic3Definitivo/stim/4_effect.mov 562 05-May-2017 17:06:05 -4.910479e+02 3.652543e+02 1 0
28GM25_F19 3 12 43 -45 45 left 1 5.000000e-01 /Users/lab/Documents/magic3Definitivo/stim/6_effect.mov 677 05-May-2017 17:06:20 2.108699e+02 3.935007e+02 1 1
28GM25_F19 3 13 29 45 45 right 1 5.000000e-01 /Users/lab/Documents/magic3Definitivo/stim/4_noeffect.mov 510 05-May-2017 17:06:23 -5.394854e+01 1.022031e+02 0 0
28GM25_F19 3 14 71 -45 45 left 1 5.000000e-01 /Users/lab/Documents/magic3Definitivo/stim/9_noeffect.mov 512 05-May-2017 17:06:26 -2.725890e+02 1.865895e+02 0 0
28GM25_F19 3 15 61 45 45 right 1 5.000000e-01 /Users/lab/Documents/magic3Definitivo/stim/8_noeffect.mov 877 05-May-2017 17:06:29 -2.642217e+02 -3.933800e+02 0 0
28GM25_F19 3 16 16 -45 -45 left 1 5.000000e-01 /Users/lab/Documents/magic3Definitivo/stim/2_noeffect.mov 693 05-May-2017 17:06:53 1.746468e+02 4.287902e+02 0 1
28GM25_F19 3 17 15 -45 45 left 1 5.000000e-01 /Users/lab/Documents/magic3Definitivo/stim/2_noeffect.mov 523 05-May-2017 17:06:56 4.892554e+02 -2.372287e+02 0 0
28GM25_F19 3 18 46 45 -45 right 1 5.000000e-01 /Users/lab/Documents/magic3Definitivo/stim/6_noeffect.mov 561 05-May-2017 17:06:59 -6.876940e+01 6.712463e+01 0 0
28GM25_F19 3 19 24 -45 -45 left 1 5.000000e-01 /Users/lab/Documents/magic3Definitivo/stim/3_noeffect.mov 599 05-May-2017 17:07:02 -6.438653e+01 -2.886099e+02 0 0
28GM25_F19 3 20 51 -45 45 left 1 5.000000e-01 /Users/lab/Documents/magic3Definitivo/stim/7_effect.mov 561 05-May-2017 17:07:21 -4.393485e+02 2.863493e+01 1 1
28GM25_F19 3 21 67 -45 45 left 1 5.000000e-01 /Users/lab/Documents/magic3Definitivo/stim/9_effect.mov 409 05-May-2017 17:07:24 1.904584e+02 4.555303e+01 1 0
28GM25_F19 3 22 32 -45 -45 left 1 5.000000e-01 /Users/lab/Documents/magic3Definitivo/stim/4_noeffect.mov 644 05-May-2017 17:07:27 -1.534110e+02 -1.241787e+02 0 0
28GM25_F19 3 23 31 -45 45 left 1 5.000000e-01 /Users/lab/Documents/magic3Definitivo/stim/4_noeffect.mov 435 05-May-2017 17:07:29 5.765201e+01 2.785482e+02 0 0
28GM25_F19 3 24 47 -45 45 left 1 5.000000e-01 /Users/lab/Documents/magic3Definitivo/stim/6_noeffect.mov 526 05-May-2017 17:07:44 2.856840e+02 3.034655e+02 0 1
28GM25_F19 3 25 23 -45 45 left 1 5.000000e-01 /Users/lab/Documents/magic3Definitivo/stim/3_noeffect.mov 408 05-May-2017 17:07:47 2.199223e+02 -1.210148e+02 0 0
28GM25_F19 3 26 30 45 -45 left 0 5.000000e-01 /Users/lab/Documents/magic3Definitivo/stim/4_noeffect.mov 346 05-May-2017 17:07:49 -3.821987e+01 -9.815348e-01 0 0
28GM25_F19 3 27 10 45 -45 right 1 5.000000e-01 /Users/lab/Documents/magic3Definitivo/stim/2_effect.mov 595 05-May-2017 17:07:52 -4.301623e+02 3.092538e+02 1 0
28GM25_F19 3 28 50 45 -45 right 1 5.000000e-01 /Users/lab/Documents/magic3Definitivo/stim/7_effect.mov 728 05-May-2017 17:08:12 1.785658e+02 -2.131577e+02 1 1
28GM25_F19 3 29 52 -45 -45 left 1 5.000000e-01 /Users/lab/Documents/magic3Definitivo/stim/7_effect.mov 441 05-May-2017 17:08:14 8.658511e+01 1.755540e+02 1 0
28GM25_F19 3 30 75 -45 45 left 1 5.000000e-01 /Users/lab/Documents/magic3Definitivo/stim/10_effect.mov 529 05-May-2017 17:08:17 -6.094312e+01 4.032192e+01 1 0
28GM25_F19 3 31 4 -45 -45 left 1 5.000000e-01 /Users/lab/Documents/magic3Definitivo/stim/1_effect.mov 978 05-May-2017 17:08:20 -2.973296e+02 1.239191e+02 1 0
28GM25_F19 3 32 60 -45 -45 left 1 5.000000e-01 /Users/lab/Documents/magic3Definitivo/stim/8_effect.mov 810 05-May-2017 17:08:42 2.336217e+02 -4.003128e+02 1 1
28GM25_F19 3 33 56 -45 -45 left 1 5.000000e-01 /Users/lab/Documents/magic3Definitivo/stim/7_noeffect.mov 611 05-May-2017 17:08:44 2.618535e+02 3.379271e+02 0 0
28GM25_F19 3 34 72 -45 -45 left 1 5.000000e-01 /Users/lab/Documents/magic3Definitivo/stim/9_noeffect.mov 727 05-May-2017 17:08:47 -3.801991e+02 1.818270e+02 0 0
28GM25_F19 3 35 62 45 -45 right 1 5.000000e-01 /Users/lab/Documents/magic3Definitivo/stim/8_noeffect.mov 469 05-May-2017 17:08:50 1.715061e+02 2.491208e+02 0 0
28GM25_F19 3 36 69 45 45 right 1 5.000000e-01 /Users/lab/Documents/magic3Definitivo/stim/9_noeffect.mov 626 05-May-2017 17:09:12 8.042900e+01 2.729449e+02 0 1
28GM25_F19 3 37 54 45 -45 right 1 5.000000e-01 /Users/lab/Documents/magic3Definitivo/stim/7_noeffect.mov 594 05-May-2017 17:09:15 -1.723888e+02 4.332907e+02 0 0
28GM25_F19 3 38 20 -45 -45 left 1 5.000000e-01 /Users/lab/Documents/magic3Definitivo/stim/3_effect.mov 561 05-May-2017 17:09:18 -1.438385e+02 -1.121381e+02 1 0
28GM25_F19 3 39 39 -45 45 left 1 5.000000e-01 /Users/lab/Documents/magic3Definitivo/stim/5_noeffect.mov 629 05-May-2017 17:09:21 4.396284e+02 -2.220790e+02 0 0
28GM25_F19 3 40 8 -45 -45 left 1 5.000000e-01 /Users/lab/Documents/magic3Definitivo/stim/1_noeffect.mov 676 05-May-2017 17:09:46 3.857423e+01 3.070398e+02 1 1
28GM25_F19 3 41 37 45 45 right 1 5.000000e-01 /Users/lab/Documents/magic3Definitivo/stim/5_noeffect.mov 960 05-May-2017 17:09:49 -3.057162e+02 4.202389e+01 0 0
28GM25_F19 3 42 41 45 45 right 1 5.000000e-01 /Users/lab/Documents/magic3Definitivo/stim/6_effect.mov 812 05-May-2017 17:09:52 2.107225e+02 -4.041963e+02 1 0
28GM25_F19 3 43 7 -45 45 left 1 5.000000e-01 /Users/lab/Documents/magic3Definitivo/stim/1_noeffect.mov 745 05-May-2017 17:09:55 1.282819e+02 3.848333e+02 1 0
28GM25_F19 3 44 36 -45 -45 left 1 5.000000e-01 /Users/lab/Documents/magic3Definitivo/stim/5_effect.mov 644 05-May-2017 17:10:12 2.313664e+02 -3.426030e+02 1 1
28GM25_F19 3 45 17 45 45 right 1 5.000000e-01 /Users/lab/Documents/magic3Definitivo/stim/3_effect.mov 512 05-May-2017 17:10:14 3.129338e+02 -1.929091e+02 1 0
28GM25_F19 3 46 77 45 45 right 1 5.000000e-01 /Users/lab/Documents/magic3Definitivo/stim/10_noeffect.mov 513 05-May-2017 17:10:17 4.042884e+02 4.998955e+02 0 0
28GM25_F19 3 47 79 -45 45 left 1 5.000000e-01 /Users/lab/Documents/magic3Definitivo/stim/10_noeffect.mov 661 05-May-2017 17:10:20 2.765275e+02 5.913020e+01 0 0
28GM25_F19 3 48 33 45 45 right 1 5.000000e-01 /Users/lab/Documents/magic3Definitivo/stim/5_effect.mov 613 05-May-2017 17:10:37 2.301650e+01 -2.800584e+02 1 1
28GM25_F19 3 49 40 -45 -45 left 1 5.000000e-01 /Users/lab/Documents/magic3Definitivo/stim/5_noeffect.mov 418 05-May-2017 17:10:40 2.470737e+02 3.968826e+01 0 0
28GM25_F19 3 50 21 45 45 right 1 5.000000e-01 /Users/lab/Documents/magic3Definitivo/stim/3_noeffect.mov 427 05-May-2017 17:10:42 4.239619e+02 2.348200e+02 0 0
28GM25_F19 3 51 55 -45 45 left 1 5.000000e-01 /Users/lab/Documents/magic3Definitivo/stim/7_noeffect.mov 456 05-May-2017 17:10:45 1.013621e+02 -3.339908e+02 0 0
28GM25_F19 3 52 53 45 45 right 1 5.000000e-01 /Users/lab/Documents/magic3Definitivo/stim/7_noeffect.mov 759 05-May-2017 17:11:04 -1.476454e+02 -4.489071e+02 0 1
28GM25_F19 3 53 6 45 -45 right 1 5.000000e-01 /Users/lab/Documents/magic3Definitivo/stim/1_noeffect.mov 613 05-May-2017 17:11:07 -6.343116e+01 3.951630e+02 1 0
28GM25_F19 3 54 64 -45 -45 left 1 5.000000e-01 /Users/lab/Documents/magic3Definitivo/stim/8_noeffect.mov 661 05-May-2017 17:11:10 -6.791054e+01 -4.545556e+02 0 0
28GM25_F19 3 55 57 45 45 right 1 5.000000e-01 /Users/lab/Documents/magic3Definitivo/stim/8_effect.mov 713 05-May-2017 17:11:13 -3.236360e+02 -7.889329e+01 1 0
28GM25_F19 3 56 68 -45 -45 left 1 5.000000e-01 /Users/lab/Documents/magic3Definitivo/stim/9_effect.mov 844 05-May-2017 17:11:35 4.976517e+02 -2.734165e+02 1 1
28GM25_F19 3 57 58 45 -45 right 1 5.000000e-01 /Users/lab/Documents/magic3Definitivo/stim/8_effect.mov 595 05-May-2017 17:11:38 -4.478855e+02 1.881162e+02 1 0
28GM25_F19 3 58 66 45 -45 right 1 5.000000e-01 /Users/lab/Documents/magic3Definitivo/stim/9_effect.mov 512 05-May-2017 17:11:41 -3.833064e+02 -2.287438e+01 1 0
28GM25_F19 3 59 45 45 45 right 1 5.000000e-01 /Users/lab/Documents/magic3Definitivo/stim/6_noeffect.mov 594 05-May-2017 17:11:44 2.195151e+02 -4.514209e+01 0 0
28GM25_F19 3 60 76 -45 -45 left 1 5.000000e-01 /Users/lab/Documents/magic3Definitivo/stim/10_effect.mov 611 05-May-2017 17:11:58 4.705879e+02 -5.194118e+01 1 1
28GM25_F19 3 61 3 -45 45 left 1 5.000000e-01 /Users/lab/Documents/magic3Definitivo/stim/1_effect.mov 494 05-May-2017 17:12:01 -1.358762e+02 1.646837e+02 1 0
28GM25_F19 3 62 13 45 45 left 0 5.000000e-01 /Users/lab/Documents/magic3Definitivo/stim/2_noeffect.mov 610 05-May-2017 17:12:04 -1.492102e+02 -3.276311e+02 0 0
28GM25_F19 3 63 38 45 -45 right 1 5.000000e-01 /Users/lab/Documents/magic3Definitivo/stim/5_noeffect.mov 526 05-May-2017 17:12:07 -3.015751e+02 3.728704e+01 0 0
28GM25_F19 3 64 65 45 45 right 1 5.000000e-01 /Users/lab/Documents/magic3Definitivo/stim/9_effect.mov 545 05-May-2017 17:12:28 -6.921071e+01 9.640694e+01 1 1
28GM25_F19 3 65 70 45 -45 right 1 5.000000e-01 /Users/lab/Documents/magic3Definitivo/stim/9_noeffect.mov 472 05-May-2017 17:12:31 7.307497e+01 1.773449e+02 0 0
28GM25_F19 3 66 36 -45 45 left 1 5.000000e-01 /Users/lab/Documents/magic3Definitivo/stim/5_effect.mov 448 05-May-2017 17:12:34 4.067735e+01 -3.448670e+02 1 0
28GM25_F19 3 67 27 -45 45 left 1 5.000000e-01 /Users/lab/Documents/magic3Definitivo/stim/4_effect.mov 662 05-May-2017 17:12:37 4.303799e+02 -2.938018e+02 1 0
28GM25_F19 3 68 59 -45 45 left 1 5.000000e-01 /Users/lab/Documents/magic3Definitivo/stim/8_effect.mov 510 05-May-2017 17:12:58 -5.460334e-01 4.390872e+02 1 1
28GM25_F19 3 69 14 45 -45 right 1 5.000000e-01 /Users/lab/Documents/magic3Definitivo/stim/2_noeffect.mov 555 05-May-2017 17:13:00 9.853197e+01 -2.885992e+01 0 0
28GM25_F19 3 70 9 45 45 right 1 5.000000e-01 /Users/lab/Documents/magic3Definitivo/stim/2_effect.mov 678 05-May-2017 17:13:03 -1.022554e+02 4.107079e+02 1 0
28GM25_F19 3 71 63 -45 45 left 1 5.000000e-01 /Users/lab/Documents/magic3Definitivo/stim/8_noeffect.mov 578 05-May-2017 17:13:06 -4.001439e+02 2.971042e+02 0 0
28GM25_F19 3 72 78 45 -45 right 1 5.000000e-01 /Users/lab/Documents/magic3Definitivo/stim/10_noeffect.mov 610 05-May-2017 17:13:20 -1.250185e+02 -1.869853e+02 0 1
28GM25_F19 3 73 19 -45 45 left 1 5.000000e-01 /Users/lab/Documents/magic3Definitivo/stim/3_effect.mov 376 05-May-2017 17:13:23 -7.302691e+01 -1.086188e+02 1 0
28GM25_F19 3 74 44 -45 -45 left 1 5.000000e-01 /Users/lab/Documents/magic3Definitivo/stim/6_effect.mov 628 05-May-2017 17:13:26 4.078770e+02 -1.845473e+02 1 0
28GM25_F19 3 75 34 45 -45 right 1 5.000000e-01 /Users/lab/Documents/magic3Definitivo/stim/5_effect.mov 561 05-May-2017 17:13:29 -1.709170e+02 -4.261950e+02 1 0
28GM25_F19 3 76 12 -45 -45 left 1 5.000000e-01 /Users/lab/Documents/magic3Definitivo/stim/2_effect.mov 1043 05-May-2017 17:13:54 -3.087470e+02 -8.559210e+01 1 1
28GM25_F19 3 77 73 45 45 right 1 5.000000e-01 /Users/lab/Documents/magic3Definitivo/stim/10_effect.mov 795 05-May-2017 17:13:57 -2.855061e+02 -1.608483e+02 1 0
28GM25_F19 3 78 22 45 -45 right 1 5.000000e-01 /Users/lab/Documents/magic3Definitivo/stim/3_noeffect.mov 510 05-May-2017 17:14:00 1.744927e+02 3.210533e+02 0 0
28GM25_F19 3 79 1 45 45 right 1 5.000000e-01 /Users/lab/Documents/magic3Definitivo/stim/1_effect.mov 661 05-May-2017 17:14:03 -2.352335e+02 3.571174e+02 1 0
28GM25_F19 3 80 2 45 -45 right 1 5.000000e-01 /Users/lab/Documents/magic3Definitivo/stim/1_effect.mov 561 05-May-2017 17:14:06 7.258698e+01 2.621068e+02 1 0
