subject_name subjectNumber iTrial unshuffled_trial targetOrientation flankersOrientation response correct onscreen_stim_duration magicShows rt date time_of_day deltaX deltaY surpriseClip isClipTrial
95LS24_M22 2 1 66 45 -45 right 1 5.000000e-01 /Users/lab/Documents/magic3Definitivo/stim/9_effect.mov 676 05-May-2017 17:52:04 -3.959731e+02 -3.403160e+02 1 1
95LS24_M22 2 2 39 -45 45 left 1 5.000000e-01 /Users/lab/Documents/magic3Definitivo/stim/5_noeffect.mov 609 05-May-2017 17:52:07 -5.778308e+01 -3.074156e+02 0 0
95LS24_M22 2 3 11 -45 45 left 1 5.000000e-01 /Users/lab/Documents/magic3Definitivo/stim/2_effect.mov 544 05-May-2017 17:52:10 -4.077200e+02 2.219980e+02 1 0
95LS24_M22 2 4 54 45 -45 left 0 5.000000e-01 /Users/lab/Documents/magic3Definitivo/stim/7_noeffect.mov 612 05-May-2017 17:52:29 -1.964648e+02 4.955543e+02 0 1
95LS24_M22 2 5 16 -45 -45 left 1 5.000000e-01 /Users/lab/Documents/magic3Definitivo/stim/2_noeffect.mov 644 05-May-2017 17:52:32 3.172576e+02 -1.078647e+01 0 0
95LS24_M22 2 6 69 45 45 right 1 5.000000e-01 /Users/lab/Documents/magic3Definitivo/stim/9_noeffect.mov 573 05-May-2017 17:52:35 4.081594e+02 -1.318182e+02 0 0
95LS24_M22 2 7 70 45 -45 left 0 5.000000e-01 /Users/lab/Documents/magic3Definitivo/stim/9_noeffect.mov 396 05-May-2017 17:52:37 -4.637191e+02 -4.490580e+02 0 0
95LS24_M22 2 8 71 -45 45 left 1 5.000000e-01 /Users/lab/Documents/magic3Definitivo/stim/9_noeffect.mov 645 05-May-2017 17:52:59 4.225797e+02 -2.619841e+02 0 1
95LS24_M22 2 9 41 45 45 right 1 5.000000e-01 /Users/lab/Documents/magic3Definitivo/stim/6_effect.mov 462 05-May-2017 17:53:02 2.239440e+02 2.120311e+02 1 0
95LS24_M22 2 10 17 45 45 left 0 5.000000e-01 /Users/lab/Documents/magic3Definitivo/stim/3_effect.mov 392 05-May-2017 17:53:04 -4.694975e+01 -3.828598e+02 1 0
95LS24_M22 2 11 63 -45 45 left 1 5.000000e-01 /Users/lab/Documents/magic3Definitivo/stim/8_noeffect.mov 458 05-May-2017 17:53:07 -2.327673e+00 3.070817e+02 0 0
95LS24_M22 2 12 77 45 45 right 1 5.000000e-01 /Users/lab/Documents/magic3Definitivo/stim/10_noeffect.mov 593 05-May-2017 17:53:21 -4.598108e+02 -2.746441e+02 0 1
95LS24_M22 2 13 2 45 -45 right 1 5.000000e-01 /Users/lab/Documents/magic3Definitivo/stim/1_effect.mov 493 05-May-2017 17:53:24 1.389866e+02 3.281416e+01 1 0
95LS24_M22 2 14 74 45 -45 right 1 5.000000e-01 /Users/lab/Documents/magic3Definitivo/stim/10_effect.mov 527 05-May-2017 17:53:27 4.201590e+01 -4.182111e+02 1 0
95LS24_M22 2 15 67 -45 45 left 1 5.000000e-01 /Users/lab/Documents/magic3Definitivo/stim/9_effect.mov 510 05-May-2017 17:53:29 3.407002e+02 -4.441409e+02 1 0
95LS24_M22 2 16 61 45 45 right 1 5.000000e-01 /Users/lab/Documents/magic3Definitivo/stim/8_noeffect.mov 611 05-May-2017 17:53:50 -2.738769e+02 -4.929931e+02 0 1
95LS24_M22 2 17 80 -45 -45 left 1 5.000000e-01 /Users/lab/Documents/magic3Definitivo/stim/10_noeffect.mov 612 05-May-2017 17:53:53 2.316753e+01 -1.158484e-02 0 0
95LS24_M22 2 18 23 -45 45 left 1 5.000000e-01 /Users/lab/Documents/magic3Definitivo/stim/3_noeffect.mov 561 05-May-2017 17:53:56 -2.483579e+02 2.671895e+02 0 0
95LS24_M22 2 19 47 -45 45 left 1 5.000000e-01 /Users/lab/Documents/magic3Definitivo/stim/6_noeffect.mov 457 05-May-2017 17:53:59 -2.608698e+02 4.942822e+01 0 0
95LS24_M22 2 20 18 45 -45 right 1 5.000000e-01 /Users/lab/Documents/magic3Definitivo/stim/3_effect.mov 661 05-May-2017 17:54:17 -1.891324e+02 -4.824267e+02 1 1
95LS24_M22 2 21 8 -45 -45 left 1 5.000000e-01 /Users/lab/Documents/magic3Definitivo/stim/1_noeffect.mov 528 05-May-2017 17:54:20 4.494607e+02 -3.558668e+02 1 0
95LS24_M22 2 22 53 45 45 right 1 5.000000e-01 /Users/lab/Documents/magic3Definitivo/stim/7_noeffect.mov 472 05-May-2017 17:54:23 -4.711148e+02 -4.701298e+02 0 0
95LS24_M22 2 23 9 45 45 right 1 5.000000e-01 /Users/lab/Documents/magic3Definitivo/stim/2_effect.mov 371 05-May-2017 17:54:25 -1.191490e+02 1.909940e+02 1 0
95LS24_M22 2 24 36 -45 -45 right 0 5.000000e-01 /Users/lab/Documents/magic3Definitivo/stim/5_effect.mov 527 05-May-2017 17:54:42 -1.764600e+02 -3.012632e+02 1 1
95LS24_M22 2 25 28 -45 -45 left 1 5.000000e-01 /Users/lab/Documents/magic3Definitivo/stim/4_effect.mov 494 05-May-2017 17:54:45 1.485515e+01 3.194410e+01 1 0
95LS24_M22 2 26 43 -45 45 left 1 5.000000e-01 /Users/lab/Documents/magic3Definitivo/stim/6_effect.mov 611 05-May-2017 17:54:48 -3.939764e+02 7.323733e+01 1 0
95LS24_M22 2 27 48 -45 -45 left 1 5.000000e-01 /Users/lab/Documents/magic3Definitivo/stim/6_noeffect.mov 578 05-May-2017 17:54:50 -3.873404e+02 -9.298951e+01 0 0
95LS24_M22 2 28 27 -45 45 left 1 5.000000e-01 /Users/lab/Documents/magic3Definitivo/stim/4_effect.mov 626 05-May-2017 17:55:07 5.501911e+00 -2.753601e+02 1 1
95LS24_M22 2 29 60 -45 -45 left 1 5.000000e-01 /Users/lab/Documents/magic3Definitivo/stim/8_effect.mov 446 05-May-2017 17:55:10 -3.062257e+02 3.121147e+02 1 0
95LS24_M22 2 30 4 -45 -45 left 1 5.000000e-01 /Users/lab/Documents/magic3Definitivo/stim/1_effect.mov 412 05-May-2017 17:55:13 -1.825727e+02 -1.816652e+02 1 0
95LS24_M22 2 31 58 45 -45 left 0 5.000000e-01 /Users/lab/Documents/magic3Definitivo/stim/8_effect.mov 398 05-May-2017 17:55:15 -2.153306e+02 -3.494176e+01 1 0
95LS24_M22 2 32 12 -45 -45 left 1 5.000000e-01 /Users/lab/Documents/magic3Definitivo/stim/2_effect.mov 625 05-May-2017 17:55:41 -2.677396e+01 -2.090680e+02 1 1
95LS24_M22 2 33 3 -45 45 left 1 5.000000e-01 /Users/lab/Documents/magic3Definitivo/stim/1_effect.mov 613 05-May-2017 17:55:44 -3.291404e+02 -4.947928e+02 1 0
95LS24_M22 2 34 31 -45 45 left 1 5.000000e-01 /Users/lab/Documents/magic3Definitivo/stim/4_noeffect.mov 528 05-May-2017 17:55:46 4.360959e+02 -8.748214e+01 0 0
95LS24_M22 2 35 15 -45 45 left 1 5.000000e-01 /Users/lab/Documents/magic3Definitivo/stim/2_noeffect.mov 511 05-May-2017 17:55:49 -4.110285e+02 3.956546e+02 0 0
95LS24_M22 2 36 37 45 45 right 1 5.000000e-01 /Users/lab/Documents/magic3Definitivo/stim/5_noeffect.mov 678 05-May-2017 17:56:06 -1.153404e+02 -2.816427e+02 0 1
95LS24_M22 2 37 79 -45 45 left 1 5.000000e-01 /Users/lab/Documents/magic3Definitivo/stim/10_noeffect.mov 489 05-May-2017 17:56:08 -1.537133e+02 1.367620e+02 0 0
95LS24_M22 2 38 73 45 45 right 1 5.000000e-01 /Users/lab/Documents/magic3Definitivo/stim/10_effect.mov 615 05-May-2017 17:56:11 -3.540928e+02 1.675826e+02 1 0
95LS24_M22 2 39 22 45 -45 left 0 5.000000e-01 /Users/lab/Documents/magic3Definitivo/stim/3_noeffect.mov 404 05-May-2017 17:56:14 -2.438037e+02 2.198391e+02 0 0
95LS24_M22 2 40 51 -45 45 left 1 5.000000e-01 /Users/lab/Documents/magic3Definitivo/stim/7_effect.mov 628 05-May-2017 17:56:33 -2.167546e+02 -1.094722e+02 1 1
95LS24_M22 2 41 56 -45 -45 left 1 5.000000e-01 /Users/lab/Documents/magic3Definitivo/stim/7_noeffect.mov 497 05-May-2017 17:56:36 1.003799e+02 3.254455e+02 0 0
95LS24_M22 2 42 10 45 -45 right 1 5.000000e-01 /Users/lab/Documents/magic3Definitivo/stim/2_effect.mov 496 05-May-2017 17:56:39 -3.589943e+02 3.394726e+02 1 0
95LS24_M22 2 43 24 -45 -45 left 1 5.000000e-01 /Users/lab/Documents/magic3Definitivo/stim/3_noeffect.mov 443 05-May-2017 17:56:41 4.494544e+02 4.725009e+02 0 0
95LS24_M22 2 44 32 -45 -45 left 1 5.000000e-01 /Users/lab/Documents/magic3Definitivo/stim/4_noeffect.mov 613 05-May-2017 17:56:58 3.526035e+02 -9.446539e+01 0 1
95LS24_M22 2 45 29 45 45 right 1 5.000000e-01 /Users/lab/Documents/magic3Definitivo/stim/4_noeffect.mov 545 05-May-2017 17:57:01 -4.788821e+02 -4.967568e+01 0 0
95LS24_M22 2 46 52 -45 -45 left 1 5.000000e-01 /Users/lab/Documents/magic3Definitivo/stim/7_effect.mov 712 05-May-2017 17:57:04 -4.622938e+02 -3.803240e+02 1 0
95LS24_M22 2 47 1 45 45 right 1 5.000000e-01 /Users/lab/Documents/magic3Definitivo/stim/1_effect.mov 352 05-May-2017 17:57:07 1.381331e+02 1.091016e+01 1 0
95LS24_M22 2 48 34 45 -45 right 1 5.000000e-01 /Users/lab/Documents/magic3Definitivo/stim/5_effect.mov 510 05-May-2017 17:57:23 1.417521e+02 1.772374e+02 1 1
95LS24_M22 2 49 30 45 -45 right 1 5.000000e-01 /Users/lab/Documents/magic3Definitivo/stim/4_noeffect.mov 545 05-May-2017 17:57:26 -4.893473e+02 -2.878598e+02 0 0
95LS24_M22 2 50 46 45 -45 right 1 5.000000e-01 /Users/lab/Documents/magic3Definitivo/stim/6_noeffect.mov 408 05-May-2017 17:57:29 2.366392e+02 -4.484107e+02 0 0
95LS24_M22 2 51 14 45 -45 right 1 5.000000e-01 /Users/lab/Documents/magic3Definitivo/stim/2_noeffect.mov 595 05-May-2017 17:57:32 -4.049344e+02 -3.394179e+02 0 0
95LS24_M22 2 52 76 -45 -45 left 1 5.000000e-01 /Users/lab/Documents/magic3Definitivo/stim/10_effect.mov 559 05-May-2017 17:57:46 -2.342556e+02 1.770190e+02 1 1
95LS24_M22 2 53 65 45 45 right 1 5.000000e-01 /Users/lab/Documents/magic3Definitivo/stim/9_effect.mov 372 05-May-2017 17:57:49 2.205838e+02 -1.056165e+02 1 0
95LS24_M22 2 54 5 45 45 right 1 5.000000e-01 /Users/lab/Documents/magic3Definitivo/stim/1_noeffect.mov 394 05-May-2017 17:57:51 -1.060586e+02 -4.676763e+02 1 0
95LS24_M22 2 55 19 -45 45 left 1 5.000000e-01 /Users/lab/Documents/magic3Definitivo/stim/3_effect.mov 528 05-May-2017 17:57:54 -2.095354e+02 2.436056e+02 1 0
95LS24_M22 2 56 21 45 45 right 1 5.000000e-01 /Users/lab/Documents/magic3Definitivo/stim/3_noeffect.mov 575 05-May-2017 17:58:12 3.354240e+02 -1.268100e+02 0 1
95LS24_M22 2 57 72 -45 -45 left 1 5.000000e-01 /Users/lab/Documents/magic3Definitivo/stim/9_noeffect.mov 645 05-May-2017 17:58:15 4.721848e+02 -1.161608e+02 0 0
95LS24_M22 2 58 13 45 45 right 1 5.000000e-01 /Users/lab/Documents/magic3Definitivo/stim/2_noeffect.mov 511 05-May-2017 17:58:18 3.633826e+02 4.330637e+02 0 0
95LS24_M22 2 59 33 45 45 right 1 5.000000e-01 /Users/lab/Documents/magic3Definitivo/stim/5_effect.mov 412 05-May-2017 17:58:21 -8.082094e+01 -1.642559e+02 1 0
95LS24_M22 2 60 59 -45 45 left 1 5.000000e-01 /Users/lab/Documents/magic3Definitivo/stim/8_effect.mov 544 05-May-2017 17:58:41 -2.680133e+01 -7.242232e+01 1 1
95LS24_M22 2 61 78 45 -45 right 1 5.000000e-01 /Users/lab/Documents/magic3Definitivo/stim/10_noeffect.mov 474 05-May-2017 17:58:44 -7.165710e+01 -3.626181e+02 0 0
95LS24_M22 2 62 55 -45 45 left 1 5.000000e-01 /Users/lab/Documents/magic3Definitivo/stim/7_noeffect.mov 512 05-May-2017 17:58:47 2.694137e+02 -1.519247e+02 0 0
95LS24_M22 2 63 50 45 -45 right 1 5.000000e-01 /Users/lab/Documents/magic3Definitivo/stim/7_effect.mov 459 05-May-2017 17:58:50 -5.480706e+01 3.135963e+02 1 0
95LS24_M22 2 64 42 45 -45 left 0 5.000000e-01 /Users/lab/Documents/magic3Definitivo/stim/6_effect.mov 595 05-May-2017 17:59:04 3.844606e+02 6.802776e+01 1 1
95LS24_M22 2 65 40 -45 -45 left 1 5.000000e-01 /Users/lab/Documents/magic3Definitivo/stim/5_noeffect.mov 561 05-May-2017 17:59:07 -8.324224e+01 -4.392120e+02 0 0
95LS24_M22 2 66 20 -45 -45 left 1 5.000000e-01 /Users/lab/Documents/magic3Definitivo/stim/3_effect.mov 403 05-May-2017 17:59:10 6.720929e+01 -2.228829e+02 1 0
95LS24_M22 2 67 68 -45 -45 left 1 5.000000e-01 /Users/lab/Documents/magic3Definitivo/stim/9_effect.mov 486 05-May-2017 17:59:13 -4.557437e+02 3.710185e+02 1 0
95LS24_M22 2 68 49 45 45 right 1 5.000000e-01 /Users/lab/Documents/magic3Definitivo/stim/7_effect.mov 694 05-May-2017 17:59:32 3.928507e+02 -3.915438e+02 1 1
95LS24_M22 2 69 38 45 -45 right 1 5.000000e-01 /Users/lab/Documents/magic3Definitivo/stim/5_noeffect.mov 458 05-May-2017 17:59:35 -7.603806e+01 2.387173e+02 0 0
95LS24_M22 2 70 75 -45 45 left 1 5.000000e-01 /Users/lab/Documents/magic3Definitivo/stim/10_effect.mov 468 05-May-2017 17:59:37 -2.492218e+02 -4.283289e+02 1 0
95LS24_M22 2 71 44 -45 -45 left 1 5.000000e-01 /Users/lab/Documents/magic3Definitivo/stim/6_effect.mov 530 05-May-2017 17:59:40 2.804084e+02 -3.626099e+02 1 0
95LS24_M22 2 72 6 45 -45 right 1 5.000000e-01 /Users/lab/Documents/magic3Definitivo/stim/1_noeffect.mov 528 05-May-2017 18:00:05 1.162282e+02 2.203381e+02 1 1
95LS24_M22 2 73 62 45 -45 right 1 5.000000e-01 /Users/lab/Documents/magic3Definitivo/stim/8_noeffect.mov 444 05-May-2017 18:00:08 2.633805e+01 -1.176545e+02 0 0
95LS24_M22 2 74 57 45 45 right 1 5.000000e-01 /Users/lab/Documents/magic3Definitivo/stim/8_effect.mov 478 05-May-2017 18:00:10 4.126516e+02 4.638553e+02 1 0
95LS24_M22 2 75 7 -45 45 left 1 5.000000e-01 /Users/lab/Documents/magic3Definitivo/stim/1_noeffect.mov 478 05-May-2017 18:00:13 -3.082104e+02 1.407065e+02 1 0
95LS24_M22 2 76 64 -45 -45 left 1 5.000000e-01 /Users/lab/Documents/magic3Definitivo/stim/8_noeffect.mov 528 05-May-2017 18:00:34 -3.879443e+02 7.430378e+00 0 1
95LS24_M22 2 77 36 -45 45 left 1 5.000000e-01 /Users/lab/Documents/magic3Definitivo/stim/5_effect.mov 610 05-May-2017 18:00:37 -9.496572e+01 -1.527787e+02 1 0
95LS24_M22 2 78 45 45 45 right 1 5.000000e-01 /Users/lab/Documents/magic3Definitivo/stim/6_noeffect.mov 604 05-May-2017 18:00:40 -2.882385e+02 4.224594e+02 0 0
95LS24_M22 2 79 26 45 -45 right 1 5.000000e-01 /Users/lab/Documents/magic3Definitivo/stim/4_effect.mov 595 05-May-2017 18:00:43 1.265880e+02 3.003046e+02 1 0
95LS24_M22 2 80 25 45 45 right 1 5.000000e-01 /Users/lab/Documents/magic3Definitivo/stim/4_effect.mov 478 05-May-2017 18:00:45 -3.506976e+02 4.433106e+00 1 0
