subject_name subjectNumber block iTrial unshuffled_trial targetOrientation flankersOrientation response correct onscreen_stim_duration magicShows rt date time_of_day deltaX deltaY surpriseClip isClipTrial isSurprise
al_ti_ 1999_08_12_349_m 676 3 1 0 63 -45 45 left 1 3 /Users/lab/Documents/experiments/2019/surprise/stim/8_noeffect.mov 786 25-Mar-2019 13:14:43 1.651951e+02 -1.208128e+02 0 1
al_ti_ 1999_08_12_349_m 676 3 2 0 77 45 45 right 1 3 /Users/lab/Documents/experiments/2019/surprise/stim/9_noeffect.mov 664 25-Mar-2019 13:14:46 -2.999073e+02 -2.942881e+02 0 0
al_ti_ 1999_08_12_349_m 676 3 3 0 48 -45 -45 left 1 3 /Users/lab/Documents/experiments/2019/surprise/stim/6_noeffect.mov 481 25-Mar-2019 13:14:49 4.319699e+02 -1.684995e+02 0 0
al_ti_ 1999_08_12_349_m 676 3 4 0 29 45 45 right 1 3 /Users/lab/Documents/experiments/2019/surprise/stim/4_noeffect.mov 682 25-Mar-2019 13:15:07 1.161522e+02 4.024796e+02 0 1
al_ti_ 1999_08_12_349_m 676 3 5 0 6 45 -45 right 1 3 /Users/lab/Documents/experiments/2019/surprise/stim/1_noeffect.mov 784 25-Mar-2019 13:15:10 3.173008e+02 1.094654e+01 0 0
al_ti_ 1999_08_12_349_m 676 3 6 0 53 45 45 right 1 3 /Users/lab/Documents/experiments/2019/surprise/stim/7_noeffect.mov 484 25-Mar-2019 13:15:13 -3.711196e+02 1.642191e+02 0 0
al_ti_ 1999_08_12_349_m 676 3 7 0 39 -45 45 left 1 3 /Users/lab/Documents/experiments/2019/surprise/stim/5_noeffect.mov 738 25-Mar-2019 13:15:16 -4.762017e+02 -2.219535e+02 0 0
al_ti_ 1999_08_12_349_m 676 3 8 0 56 -45 -45 left 1 3 /Users/lab/Documents/experiments/2019/surprise/stim/7_noeffect.mov 920 25-Mar-2019 13:15:35 3.824861e+02 3.710137e+02 0 1
al_ti_ 1999_08_12_349_m 676 3 9 0 80 -45 -45 left 1 3 /Users/lab/Documents/experiments/2019/surprise/stim/9_noeffect.mov 491 25-Mar-2019 13:15:38 -2.889766e+02 -3.857794e+02 0 0
al_ti_ 1999_08_12_349_m 676 3 10 0 25 45 45 right 1 3 /Users/lab/Documents/experiments/2019/surprise/stim/4_noeffect.mov 622 25-Mar-2019 13:15:41 2.357484e+02 -1.129994e+01 0 0
al_ti_ 1999_08_12_349_m 676 3 11 0 7 -45 45 left 1 3 /Users/lab/Documents/experiments/2019/surprise/stim/1_noeffect.mov 573 25-Mar-2019 13:15:44 4.367071e+02 2.277180e+02 0 0
al_ti_ 1999_08_12_349_m 676 3 12 0 64 -45 -45 left 1 3 /Users/lab/Documents/experiments/2019/surprise/stim/8_noeffect.mov 974 25-Mar-2019 13:16:05 -4.291586e+02 3.945005e+02 0 1
al_ti_ 1999_08_12_349_m 676 3 13 0 30 45 -45 right 1 3 /Users/lab/Documents/experiments/2019/surprise/stim/4_noeffect.mov 516 25-Mar-2019 13:16:08 -1.735510e+02 1.396528e+02 0 0
al_ti_ 1999_08_12_349_m 676 3 14 0 67 -45 45 left 1 3 /Users/lab/Documents/experiments/2019/surprise/stim/9_noeffect.mov 617 25-Mar-2019 13:16:11 4.205334e+02 -4.961778e+02 0 0
al_ti_ 1999_08_12_349_m 676 3 15 0 45 45 45 right 1 3 /Users/lab/Documents/experiments/2019/surprise/stim/6_noeffect.mov 584 25-Mar-2019 13:16:14 1.344459e+02 2.820414e+02 0 0
al_ti_ 1999_08_12_349_m 676 3 16 0 76 -45 -45 left 1 3 /Users/lab/Documents/experiments/2019/surprise/stim/9_noeffect.mov 602 25-Mar-2019 13:16:36 -8.684289e+01 5.949661e+01 0 1
al_ti_ 1999_08_12_349_m 676 3 17 0 55 -45 45 left 1 3 /Users/lab/Documents/experiments/2019/surprise/stim/7_noeffect.mov 560 25-Mar-2019 13:16:38 -3.271804e+02 -4.139462e+02 0 0
al_ti_ 1999_08_12_349_m 676 3 18 0 72 -45 -45 left 1 3 /Users/lab/Documents/experiments/2019/surprise/stim/9_noeffect.mov 435 25-Mar-2019 13:16:41 -1.155642e+01 -1.907940e+01 0 0
al_ti_ 1999_08_12_349_m 676 3 19 0 44 -45 -45 left 1 3 /Users/lab/Documents/experiments/2019/surprise/stim/6_noeffect.mov 509 25-Mar-2019 13:16:44 3.610073e+02 4.744723e+02 0 0
al_ti_ 1999_08_12_349_m 676 3 20 0 3 -45 45 left 1 3 /Users/lab/Documents/experiments/2019/surprise/stim/1_noeffect.mov 614 25-Mar-2019 13:17:09 3.432533e+02 1.016800e+02 0 1
al_ti_ 1999_08_12_349_m 676 3 21 0 14 45 -45 right 1 3 /Users/lab/Documents/experiments/2019/surprise/stim/2_noeffect.mov 566 25-Mar-2019 13:17:12 -9.829519e+01 -3.375573e+02 0 0
al_ti_ 1999_08_12_349_m 676 3 22 0 71 -45 45 left 1 3 /Users/lab/Documents/experiments/2019/surprise/stim/9_noeffect.mov 526 25-Mar-2019 13:17:15 4.609964e+02 -1.150124e+02 0 0
al_ti_ 1999_08_12_349_m 676 3 23 0 50 45 -45 right 1 3 /Users/lab/Documents/experiments/2019/surprise/stim/7_noeffect.mov 634 25-Mar-2019 13:17:18 -4.197970e+02 1.105834e+02 0 0
al_ti_ 1999_08_12_349_m 676 3 24 0 10 45 -45 right 1 3 /Users/lab/Documents/experiments/2019/surprise/stim/2_noeffect.mov 662 25-Mar-2019 13:17:43 4.063752e+02 1.598784e+02 0 1
al_ti_ 1999_08_12_349_m 676 3 25 0 20 -45 -45 left 1 3 /Users/lab/Documents/experiments/2019/surprise/stim/2_noeffect.mov 775 25-Mar-2019 13:17:46 3.463649e+02 4.498392e+02 0 0
al_ti_ 1999_08_12_349_m 676 3 26 0 60 -45 -45 left 1 3 /Users/lab/Documents/experiments/2019/surprise/stim/8_noeffect.mov 598 25-Mar-2019 13:17:49 3.955596e+02 1.836967e+00 0 0
al_ti_ 1999_08_12_349_m 676 3 27 0 68 -45 -45 left 1 3 /Users/lab/Documents/experiments/2019/surprise/stim/9_noeffect.mov 549 25-Mar-2019 13:17:52 -5.291581e+01 4.767477e+02 0 0
al_ti_ 1999_08_12_349_m 676 3 28 0 12 -45 -45 left 1 3 /Users/lab/Documents/experiments/2019/surprise/stim/2_noeffect.mov 610 25-Mar-2019 13:18:16 2.860301e+02 4.471066e+02 0 1
al_ti_ 1999_08_12_349_m 676 3 29 0 79 -45 45 left 1 3 /Users/lab/Documents/experiments/2019/surprise/stim/9_noeffect.mov 914 25-Mar-2019 13:18:20 -3.013835e+02 -3.683288e+02 0 0
al_ti_ 1999_08_12_349_m 676 3 30 0 24 -45 -45 left 1 3 /Users/lab/Documents/experiments/2019/surprise/stim/3_noeffect.mov 452 25-Mar-2019 13:18:22 -1.268155e+02 3.443827e+02 0 0
al_ti_ 1999_08_12_349_m 676 3 31 0 61 45 45 right 1 3 /Users/lab/Documents/experiments/2019/surprise/stim/8_noeffect.mov 663 25-Mar-2019 13:18:25 2.902633e+02 -1.492176e+02 0 0
al_ti_ 1999_08_12_349_m 676 3 32 0 42 45 -45 right 1 3 /Users/lab/Documents/experiments/2019/surprise/stim/6_noeffect.mov 626 25-Mar-2019 13:18:40 -1.499564e+02 -3.181410e+02 0 1
al_ti_ 1999_08_12_349_m 676 3 33 0 5 45 45 right 1 3 /Users/lab/Documents/experiments/2019/surprise/stim/1_noeffect.mov 572 25-Mar-2019 13:18:43 4.613935e+02 9.884525e+01 0 0
al_ti_ 1999_08_12_349_m 676 3 34 0 31 -45 45 left 1 3 /Users/lab/Documents/experiments/2019/surprise/stim/4_noeffect.mov 557 25-Mar-2019 13:18:46 2.966336e+02 -1.097349e+02 0 0
al_ti_ 1999_08_12_349_m 676 3 35 0 9 45 45 right 1 3 /Users/lab/Documents/experiments/2019/surprise/stim/2_noeffect.mov 519 25-Mar-2019 13:18:49 -4.389007e+02 2.089981e+02 0 0
al_ti_ 1999_08_12_349_m 676 3 36 0 4 -45 -45 left 1 3 /Users/lab/Documents/experiments/2019/surprise/stim/1_noeffect.mov 595 25-Mar-2019 13:19:14 3.106911e+02 3.054125e+02 0 1
al_ti_ 1999_08_12_349_m 676 3 37 0 62 45 -45 right 1 3 /Users/lab/Documents/experiments/2019/surprise/stim/8_noeffect.mov 570 25-Mar-2019 13:19:17 -4.177517e+02 2.491241e+02 0 0
al_ti_ 1999_08_12_349_m 676 3 38 0 16 -45 -45 left 1 3 /Users/lab/Documents/experiments/2019/surprise/stim/2_noeffect.mov 476 25-Mar-2019 13:19:20 9.485386e+01 -2.413269e+02 0 0
al_ti_ 1999_08_12_349_m 676 3 39 0 65 45 45 right 1 3 /Users/lab/Documents/experiments/2019/surprise/stim/9_noeffect.mov 536 25-Mar-2019 13:19:22 -4.351835e+02 -1.478476e+02 0 0
al_ti_ 1999_08_12_349_m 676 3 40 0 73 45 45 right 1 3 /Users/lab/Documents/experiments/2019/surprise/stim/9_noeffect.mov 813 25-Mar-2019 13:19:44 7.237940e+01 2.680320e+02 0 1
al_ti_ 1999_08_12_349_m 676 3 41 0 13 45 45 right 1 3 /Users/lab/Documents/experiments/2019/surprise/stim/2_noeffect.mov 452 25-Mar-2019 13:19:47 -1.513162e+02 4.136167e+02 0 0
al_ti_ 1999_08_12_349_m 676 3 42 0 78 45 -45 right 1 3 /Users/lab/Documents/experiments/2019/surprise/stim/9_noeffect.mov 395 25-Mar-2019 13:19:50 -4.645132e+02 -9.807591e+01 0 0
al_ti_ 1999_08_12_349_m 676 3 43 0 41 45 45 right 1 3 /Users/lab/Documents/experiments/2019/surprise/stim/6_noeffect.mov 521 25-Mar-2019 13:19:53 3.715001e+02 -1.165411e+02 0 0
al_ti_ 1999_08_12_349_m 676 3 44 0 57 45 45 right 1 3 /Users/lab/Documents/experiments/2019/surprise/stim/8_noeffect.mov 688 25-Mar-2019 13:20:14 3.803037e+02 8.340031e+01 0 1
al_ti_ 1999_08_12_349_m 676 3 45 0 49 45 45 right 1 3 /Users/lab/Documents/experiments/2019/surprise/stim/7_noeffect.mov 417 25-Mar-2019 13:20:16 2.194228e+02 4.460729e+02 0 0
al_ti_ 1999_08_12_349_m 676 3 46 0 26 45 -45 right 1 3 /Users/lab/Documents/experiments/2019/surprise/stim/4_noeffect.mov 506 25-Mar-2019 13:20:19 2.962972e+02 -6.123971e+00 0 0
al_ti_ 1999_08_12_349_m 676 3 47 0 36 -45 -45 left 1 3 /Users/lab/Documents/experiments/2019/surprise/stim/5_noeffect.mov 548 25-Mar-2019 13:20:22 -1.942993e+02 -4.144370e+02 0 0
al_ti_ 1999_08_12_349_m 676 3 48 0 66 45 -45 right 1 3 /Users/lab/Documents/experiments/2019/surprise/stim/9_noeffect.mov 634 25-Mar-2019 13:20:44 3.752287e+02 -5.660336e+01 0 1
al_ti_ 1999_08_12_349_m 676 3 49 0 70 45 -45 right 1 3 /Users/lab/Documents/experiments/2019/surprise/stim/9_noeffect.mov 390 25-Mar-2019 13:20:46 -2.235064e+02 -1.010396e+02 0 0
al_ti_ 1999_08_12_349_m 676 3 50 0 59 -45 45 left 1 3 /Users/lab/Documents/experiments/2019/surprise/stim/8_noeffect.mov 566 25-Mar-2019 13:20:49 -1.089006e+02 1.943403e+02 0 0
al_ti_ 1999_08_12_349_m 676 3 51 0 22 45 -45 right 1 3 /Users/lab/Documents/experiments/2019/surprise/stim/3_noeffect.mov 551 25-Mar-2019 13:20:52 -3.685887e+02 -1.031909e+02 0 0
al_ti_ 1999_08_12_349_m 676 3 52 0 33 45 45 right 1 3 /Users/lab/Documents/experiments/2019/surprise/stim/5_noeffect.mov 608 25-Mar-2019 13:21:09 -9.528309e+01 -3.300225e+02 0 1
al_ti_ 1999_08_12_349_m 676 3 53 0 40 -45 -45 right 0 3 /Users/lab/Documents/experiments/2019/surprise/stim/5_noeffect.mov 557 25-Mar-2019 13:21:12 -2.917294e+02 -4.352184e+02 0 0
al_ti_ 1999_08_12_349_m 676 3 54 0 18 45 -45 right 1 3 /Users/lab/Documents/experiments/2019/surprise/stim/2_noeffect.mov 537 25-Mar-2019 13:21:15 4.036201e+02 2.863491e+02 0 0
al_ti_ 1999_08_12_349_m 676 3 55 0 74 45 -45 right 1 3 /Users/lab/Documents/experiments/2019/surprise/stim/9_noeffect.mov 531 25-Mar-2019 13:21:18 4.160055e+02 -2.131824e+01 0 0
al_ti_ 1999_08_12_349_m 676 3 56 0 54 45 -45 right 1 3 /Users/lab/Documents/experiments/2019/surprise/stim/7_noeffect.mov 634 25-Mar-2019 13:21:37 -3.886242e+02 3.494990e+02 0 1
al_ti_ 1999_08_12_349_m 676 3 57 0 19 -45 45 left 1 3 /Users/lab/Documents/experiments/2019/surprise/stim/2_noeffect.mov 595 25-Mar-2019 13:21:40 3.703315e+02 -4.128805e+01 0 0
al_ti_ 1999_08_12_349_m 676 3 58 0 2 45 -45 right 1 3 /Users/lab/Documents/experiments/2019/surprise/stim/1_noeffect.mov 564 25-Mar-2019 13:21:42 4.785102e+02 4.241696e+02 0 0
al_ti_ 1999_08_12_349_m 676 3 59 0 35 -45 45 left 1 3 /Users/lab/Documents/experiments/2019/surprise/stim/5_noeffect.mov 707 25-Mar-2019 13:21:46 -3.329303e+02 -2.454004e+01 0 0
al_ti_ 1999_08_12_349_m 676 3 60 0 11 -45 45 left 1 3 /Users/lab/Documents/experiments/2019/surprise/stim/2_noeffect.mov 606 25-Mar-2019 13:22:10 -2.314108e+02 -1.336946e+02 0 1
al_ti_ 1999_08_12_349_m 676 3 61 0 17 45 45 right 1 3 /Users/lab/Documents/experiments/2019/surprise/stim/2_noeffect.mov 392 25-Mar-2019 13:22:13 -1.669469e+02 7.480803e+01 0 0
al_ti_ 1999_08_12_349_m 676 3 62 0 15 -45 45 left 1 3 /Users/lab/Documents/experiments/2019/surprise/stim/2_noeffect.mov 424 25-Mar-2019 13:22:16 1.030091e+02 -6.708079e+01 0 0
al_ti_ 1999_08_12_349_m 676 3 63 0 51 -45 45 left 1 3 /Users/lab/Documents/experiments/2019/surprise/stim/7_noeffect.mov 625 25-Mar-2019 13:22:19 -2.152022e+02 2.134464e+01 0 0
al_ti_ 1999_08_12_349_m 676 3 64 0 8 -45 -45 left 1 3 /Users/lab/Documents/experiments/2019/surprise/stim/1_noeffect.mov 628 25-Mar-2019 13:22:44 -4.757503e+02 -2.156135e+02 0 1
al_ti_ 1999_08_12_349_m 676 3 65 0 75 -45 45 left 1 3 /Users/lab/Documents/experiments/2019/surprise/stim/9_noeffect.mov 530 25-Mar-2019 13:22:47 3.729419e+02 7.830036e+01 0 0
al_ti_ 1999_08_12_349_m 676 3 66 0 27 -45 45 left 1 3 /Users/lab/Documents/experiments/2019/surprise/stim/4_noeffect.mov 556 25-Mar-2019 13:22:50 -3.255622e+02 -9.029475e+01 0 0
al_ti_ 1999_08_12_349_m 676 3 67 0 52 -45 -45 left 1 3 /Users/lab/Documents/experiments/2019/surprise/stim/7_noeffect.mov 398 25-Mar-2019 13:22:52 -3.487246e+01 -4.431855e+02 0 0
al_ti_ 1999_08_12_349_m 676 3 68 0 38 45 -45 right 1 3 /Users/lab/Documents/experiments/2019/surprise/stim/5_noeffect.mov 686 25-Mar-2019 13:23:09 7.428914e+01 2.431635e+02 0 1
al_ti_ 1999_08_12_349_m 676 3 69 0 37 45 45 right 1 3 /Users/lab/Documents/experiments/2019/surprise/stim/5_noeffect.mov 523 25-Mar-2019 13:23:12 -4.967913e+02 4.106107e+02 0 0
al_ti_ 1999_08_12_349_m 676 3 70 0 1 45 45 right 1 3 /Users/lab/Documents/experiments/2019/surprise/stim/1_noeffect.mov 526 25-Mar-2019 13:23:15 -1.854610e+02 -2.331404e+02 0 0
al_ti_ 1999_08_12_349_m 676 3 71 0 58 45 -45 right 1 3 /Users/lab/Documents/experiments/2019/surprise/stim/8_noeffect.mov 602 25-Mar-2019 13:23:18 3.659163e+02 -3.607445e+02 0 0
al_ti_ 1999_08_12_349_m 676 3 72 0 43 -45 45 NORESP 0 3 /Users/lab/Documents/experiments/2019/surprise/stim/6_noeffect.mov 2998 25-Mar-2019 13:23:35 2.002380e+02 -4.328189e+02 0 1
al_ti_ 1999_08_12_349_m 676 3 73 0 34 45 -45 right 1 3 /Users/lab/Documents/experiments/2019/surprise/stim/5_noeffect.mov 488 25-Mar-2019 13:23:37 -3.886630e+02 4.322790e+02 0 0
al_ti_ 1999_08_12_349_m 676 3 74 0 23 -45 45 left 1 3 /Users/lab/Documents/experiments/2019/surprise/stim/3_noeffect.mov 570 25-Mar-2019 13:23:40 -6.499619e+01 -1.822792e+02 0 0
al_ti_ 1999_08_12_349_m 676 3 75 0 21 45 45 right 1 3 /Users/lab/Documents/experiments/2019/surprise/stim/3_noeffect.mov 514 25-Mar-2019 13:23:43 -1.738138e+02 -4.525314e+02 0 0
al_ti_ 1999_08_12_349_m 676 3 76 0 69 45 45 right 1 3 /Users/lab/Documents/experiments/2019/surprise/stim/9_noeffect.mov 665 25-Mar-2019 13:24:05 3.856531e+02 -4.145336e+02 0 1
al_ti_ 1999_08_12_349_m 676 3 77 0 47 -45 45 left 1 3 /Users/lab/Documents/experiments/2019/surprise/stim/6_noeffect.mov 513 25-Mar-2019 13:24:08 3.358085e+00 -2.868817e+02 0 0
al_ti_ 1999_08_12_349_m 676 3 78 0 32 -45 -45 left 1 3 /Users/lab/Documents/experiments/2019/surprise/stim/4_noeffect.mov 386 25-Mar-2019 13:24:11 -6.370682e+01 -3.442226e+02 0 0
al_ti_ 1999_08_12_349_m 676 3 79 0 46 45 -45 right 1 3 /Users/lab/Documents/experiments/2019/surprise/stim/6_noeffect.mov 458 25-Mar-2019 13:24:13 -2.749821e+02 -2.152783e+02 0 0
al_ti_ 1999_08_12_349_m 676 3 80 0 28 -45 -45 left 1 3 /Users/lab/Documents/experiments/2019/surprise/stim/4_noeffect.mov 528 25-Mar-2019 13:24:16 -4.464836e+02 1.271837e+02 0 0
