subject_name subjectNumber iTrial unshuffled_trial targetOrientation flankersOrientation response correct onscreen_stim_duration magicShows rt date time_of_day deltaX deltaY surpriseClip isClipTrial
95LS24_M22 4 1 25 45 45 right 1 5.000000e-01 /Users/lab/Documents/magic3Definitivo/stim/4_effect.mov 510 05-May-2017 18:11:53 1.605122e+01 2.336249e+02 1 1
95LS24_M22 4 2 60 -45 -45 left 1 5.000000e-01 /Users/lab/Documents/magic3Definitivo/stim/8_effect.mov 425 05-May-2017 18:11:56 -4.218811e+02 -1.003590e+02 1 0
95LS24_M22 4 3 62 45 -45 right 1 5.000000e-01 /Users/lab/Documents/magic3Definitivo/stim/8_noeffect.mov 509 05-May-2017 18:11:59 -4.253038e+02 6.230523e+01 0 0
95LS24_M22 4 4 67 -45 45 left 1 5.000000e-01 /Users/lab/Documents/magic3Definitivo/stim/9_effect.mov 596 05-May-2017 18:12:21 4.491168e+01 -3.176446e+02 1 1
95LS24_M22 4 5 34 45 -45 right 1 5.000000e-01 /Users/lab/Documents/magic3Definitivo/stim/5_effect.mov 545 05-May-2017 18:12:23 -3.702546e+02 1.758832e+02 1 0
95LS24_M22 4 6 17 45 45 right 1 5.000000e-01 /Users/lab/Documents/magic3Definitivo/stim/3_effect.mov 418 05-May-2017 18:12:26 -1.358282e+02 -4.396497e+02 1 0
95LS24_M22 4 7 45 45 45 right 1 5.000000e-01 /Users/lab/Documents/magic3Definitivo/stim/6_noeffect.mov 451 05-May-2017 18:12:29 -2.904421e+02 2.460724e+02 0 0
95LS24_M22 4 8 77 45 45 right 1 5.000000e-01 /Users/lab/Documents/magic3Definitivo/stim/10_noeffect.mov 489 05-May-2017 18:12:43 -7.008605e+01 4.720654e+01 0 1
95LS24_M22 4 9 24 -45 -45 right 0 5.000000e-01 /Users/lab/Documents/magic3Definitivo/stim/3_noeffect.mov 662 05-May-2017 18:12:46 -2.206641e+02 -4.376800e+02 0 0
95LS24_M22 4 10 80 -45 -45 left 1 5.000000e-01 /Users/lab/Documents/magic3Definitivo/stim/10_noeffect.mov 613 05-May-2017 18:12:48 2.523746e+02 -2.382858e+02 0 0
95LS24_M22 4 11 44 -45 -45 left 1 5.000000e-01 /Users/lab/Documents/magic3Definitivo/stim/6_effect.mov 401 05-May-2017 18:12:51 -1.183101e+02 1.513198e+02 1 0
95LS24_M22 4 12 10 45 -45 right 1 5.000000e-01 /Users/lab/Documents/magic3Definitivo/stim/2_effect.mov 560 05-May-2017 18:13:16 1.697268e+02 1.053491e+02 1 1
95LS24_M22 4 13 65 45 45 right 1 5.000000e-01 /Users/lab/Documents/magic3Definitivo/stim/9_effect.mov 431 05-May-2017 18:13:19 -2.107888e+02 2.145350e+02 1 0
95LS24_M22 4 14 28 -45 -45 left 1 5.000000e-01 /Users/lab/Documents/magic3Definitivo/stim/4_effect.mov 497 05-May-2017 18:13:22 -3.716111e+02 4.437155e+02 1 0
95LS24_M22 4 15 54 45 -45 right 1 5.000000e-01 /Users/lab/Documents/magic3Definitivo/stim/7_noeffect.mov 432 05-May-2017 18:13:25 -7.594323e+01 2.907857e+02 0 0
95LS24_M22 4 16 26 45 -45 right 1 5.000000e-01 /Users/lab/Documents/magic3Definitivo/stim/4_effect.mov 577 05-May-2017 18:13:41 -2.395131e+02 -4.107659e+01 1 1
95LS24_M22 4 17 49 45 45 right 1 5.000000e-01 /Users/lab/Documents/magic3Definitivo/stim/7_effect.mov 442 05-May-2017 18:13:44 3.316471e+02 -4.914585e+02 1 0
95LS24_M22 4 18 57 45 45 right 1 5.000000e-01 /Users/lab/Documents/magic3Definitivo/stim/8_effect.mov 512 05-May-2017 18:13:47 1.154787e+02 2.206642e+02 1 0
95LS24_M22 4 19 79 -45 45 left 1 5.000000e-01 /Users/lab/Documents/magic3Definitivo/stim/10_noeffect.mov 468 05-May-2017 18:13:50 3.234189e+02 -3.581162e+00 0 0
95LS24_M22 4 20 5 45 45 right 1 5.000000e-01 /Users/lab/Documents/magic3Definitivo/stim/1_noeffect.mov 545 05-May-2017 18:14:14 -3.243109e+02 3.022278e+01 1 1
95LS24_M22 4 21 27 -45 45 left 1 5.000000e-01 /Users/lab/Documents/magic3Definitivo/stim/4_effect.mov 454 05-May-2017 18:14:17 -1.592610e+02 1.699561e+02 1 0
95LS24_M22 4 22 36 -45 -45 left 1 5.000000e-01 /Users/lab/Documents/magic3Definitivo/stim/5_effect.mov 366 05-May-2017 18:14:20 1.057511e+02 -4.936125e+02 1 0
95LS24_M22 4 23 18 45 -45 right 1 5.000000e-01 /Users/lab/Documents/magic3Definitivo/stim/3_effect.mov 488 05-May-2017 18:14:23 3.498043e+02 -3.991442e+02 1 0
95LS24_M22 4 24 7 -45 45 left 1 5.000000e-01 /Users/lab/Documents/magic3Definitivo/stim/1_noeffect.mov 546 05-May-2017 18:14:47 -2.822084e+02 -9.444691e+01 1 1
95LS24_M22 4 25 63 -45 45 left 1 5.000000e-01 /Users/lab/Documents/magic3Definitivo/stim/8_noeffect.mov 544 05-May-2017 18:14:50 3.971082e+02 -7.751026e+01 0 0
95LS24_M22 4 26 32 -45 -45 left 1 5.000000e-01 /Users/lab/Documents/magic3Definitivo/stim/4_noeffect.mov 452 05-May-2017 18:14:53 -2.198090e+02 -1.370299e+02 0 0
95LS24_M22 4 27 22 45 -45 right 1 5.000000e-01 /Users/lab/Documents/magic3Definitivo/stim/3_noeffect.mov 462 05-May-2017 18:14:56 1.234088e+02 -2.354698e+02 0 0
95LS24_M22 4 28 23 -45 45 left 1 5.000000e-01 /Users/lab/Documents/magic3Definitivo/stim/3_noeffect.mov 562 05-May-2017 18:15:14 1.814009e+02 3.988613e+02 0 1
95LS24_M22 4 29 46 45 -45 right 1 5.000000e-01 /Users/lab/Documents/magic3Definitivo/stim/6_noeffect.mov 494 05-May-2017 18:15:16 4.277408e+01 3.639577e+02 0 0
95LS24_M22 4 30 66 45 -45 left 0 5.000000e-01 /Users/lab/Documents/magic3Definitivo/stim/9_effect.mov 512 05-May-2017 18:15:19 4.920743e+02 2.939884e+02 1 0
95LS24_M22 4 31 47 -45 45 left 1 5.000000e-01 /Users/lab/Documents/magic3Definitivo/stim/6_noeffect.mov 594 05-May-2017 18:15:22 1.689373e+02 2.141066e+02 0 0
95LS24_M22 4 32 38 45 -45 right 1 5.000000e-01 /Users/lab/Documents/magic3Definitivo/stim/5_noeffect.mov 578 05-May-2017 18:15:38 1.860598e+02 4.399493e+02 0 1
95LS24_M22 4 33 6 45 -45 right 1 5.000000e-01 /Users/lab/Documents/magic3Definitivo/stim/1_noeffect.mov 465 05-May-2017 18:15:41 1.352282e+02 -4.121461e+02 1 0
95LS24_M22 4 34 61 45 45 right 1 5.000000e-01 /Users/lab/Documents/magic3Definitivo/stim/8_noeffect.mov 474 05-May-2017 18:15:44 -2.844702e+02 -2.988654e+02 0 0
95LS24_M22 4 35 13 45 45 right 1 5.000000e-01 /Users/lab/Documents/magic3Definitivo/stim/2_noeffect.mov 448 05-May-2017 18:15:47 -2.971871e+02 2.942053e+02 0 0
95LS24_M22 4 36 41 45 45 right 1 5.000000e-01 /Users/lab/Documents/magic3Definitivo/stim/6_effect.mov 595 05-May-2017 18:16:01 3.309260e+02 -4.592980e+02 1 1
95LS24_M22 4 37 43 -45 45 left 1 5.000000e-01 /Users/lab/Documents/magic3Definitivo/stim/6_effect.mov 578 05-May-2017 18:16:04 2.036702e+01 3.803812e+02 1 0
95LS24_M22 4 38 74 45 -45 right 1 5.000000e-01 /Users/lab/Documents/magic3Definitivo/stim/10_effect.mov 511 05-May-2017 18:16:07 -1.124635e+02 6.377976e+01 1 0
95LS24_M22 4 39 36 -45 45 left 1 5.000000e-01 /Users/lab/Documents/magic3Definitivo/stim/5_effect.mov 544 05-May-2017 18:16:10 -3.772504e+02 4.286181e+02 1 0
95LS24_M22 4 40 64 -45 -45 left 1 5.000000e-01 /Users/lab/Documents/magic3Definitivo/stim/8_noeffect.mov 496 05-May-2017 18:16:31 2.583503e+02 -4.985163e+01 0 1
95LS24_M22 4 41 11 -45 45 left 1 5.000000e-01 /Users/lab/Documents/magic3Definitivo/stim/2_effect.mov 471 05-May-2017 18:16:33 2.879826e+02 2.261888e+02 1 0
95LS24_M22 4 42 52 -45 -45 left 1 5.000000e-01 /Users/lab/Documents/magic3Definitivo/stim/7_effect.mov 424 05-May-2017 18:16:36 -1.935154e+02 -8.374450e+01 1 0
95LS24_M22 4 43 70 45 -45 left 0 5.000000e-01 /Users/lab/Documents/magic3Definitivo/stim/9_noeffect.mov 428 05-May-2017 18:16:39 -3.726356e+02 3.518041e+02 0 0
95LS24_M22 4 44 72 -45 -45 left 1 5.000000e-01 /Users/lab/Documents/magic3Definitivo/stim/9_noeffect.mov 577 05-May-2017 18:17:00 1.048746e+02 4.333660e+02 0 1
95LS24_M22 4 45 73 45 45 right 1 5.000000e-01 /Users/lab/Documents/magic3Definitivo/stim/10_effect.mov 443 05-May-2017 18:17:03 -2.690446e+02 -3.475795e+02 1 0
95LS24_M22 4 46 50 45 -45 right 1 5.000000e-01 /Users/lab/Documents/magic3Definitivo/stim/7_effect.mov 462 05-May-2017 18:17:06 -6.797901e+01 2.683510e+02 1 0
95LS24_M22 4 47 55 -45 45 right 0 5.000000e-01 /Users/lab/Documents/magic3Definitivo/stim/7_noeffect.mov 407 05-May-2017 18:17:08 2.422841e+02 7.668174e+01 0 0
95LS24_M22 4 48 75 -45 45 left 1 5.000000e-01 /Users/lab/Documents/magic3Definitivo/stim/10_effect.mov 626 05-May-2017 18:17:23 -4.417747e+02 -2.664393e+02 1 1
95LS24_M22 4 49 48 -45 -45 left 1 5.000000e-01 /Users/lab/Documents/magic3Definitivo/stim/6_noeffect.mov 404 05-May-2017 18:17:26 2.066009e+02 3.350502e+02 0 0
95LS24_M22 4 50 76 -45 -45 left 1 5.000000e-01 /Users/lab/Documents/magic3Definitivo/stim/10_effect.mov 414 05-May-2017 18:17:28 3.861466e+02 2.369740e+02 1 0
95LS24_M22 4 51 8 -45 -45 left 1 5.000000e-01 /Users/lab/Documents/magic3Definitivo/stim/1_noeffect.mov 410 05-May-2017 18:17:31 6.578306e+01 2.674371e+02 1 0
95LS24_M22 4 52 71 -45 45 left 1 5.000000e-01 /Users/lab/Documents/magic3Definitivo/stim/9_noeffect.mov 560 05-May-2017 18:17:52 3.889589e+01 3.606007e+02 0 1
95LS24_M22 4 53 31 -45 45 left 1 5.000000e-01 /Users/lab/Documents/magic3Definitivo/stim/4_noeffect.mov 595 05-May-2017 18:17:55 6.915158e+01 2.831871e+02 0 0
95LS24_M22 4 54 78 45 -45 right 1 5.000000e-01 /Users/lab/Documents/magic3Definitivo/stim/10_noeffect.mov 439 05-May-2017 18:17:58 1.856242e+02 -1.497011e+02 0 0
95LS24_M22 4 55 69 45 45 right 1 5.000000e-01 /Users/lab/Documents/magic3Definitivo/stim/9_noeffect.mov 464 05-May-2017 18:18:01 4.211014e+02 -1.015368e+01 0 0
95LS24_M22 4 56 2 45 -45 right 1 5.000000e-01 /Users/lab/Documents/magic3Definitivo/stim/1_effect.mov 794 05-May-2017 18:18:26 -4.234102e+01 2.803820e+02 1 1
95LS24_M22 4 57 14 45 -45 right 1 5.000000e-01 /Users/lab/Documents/magic3Definitivo/stim/2_noeffect.mov 546 05-May-2017 18:18:29 3.624807e+02 -3.316813e+02 0 0
95LS24_M22 4 58 53 45 45 right 1 5.000000e-01 /Users/lab/Documents/magic3Definitivo/stim/7_noeffect.mov 476 05-May-2017 18:18:31 -4.878249e+02 8.085263e-01 0 0
95LS24_M22 4 59 30 45 -45 right 1 5.000000e-01 /Users/lab/Documents/magic3Definitivo/stim/4_noeffect.mov 462 05-May-2017 18:18:34 2.831628e+02 -1.862796e+02 0 0
95LS24_M22 4 60 33 45 45 right 1 5.000000e-01 /Users/lab/Documents/magic3Definitivo/stim/5_effect.mov 510 05-May-2017 18:18:51 7.170129e+01 3.136458e+02 1 1
95LS24_M22 4 61 3 -45 45 left 1 5.000000e-01 /Users/lab/Documents/magic3Definitivo/stim/1_effect.mov 529 05-May-2017 18:18:53 -8.366387e+01 -3.811817e+01 1 0
95LS24_M22 4 62 42 45 -45 right 1 5.000000e-01 /Users/lab/Documents/magic3Definitivo/stim/6_effect.mov 561 05-May-2017 18:18:56 -3.771164e+02 -4.745096e+02 1 0
95LS24_M22 4 63 12 -45 -45 left 1 5.000000e-01 /Users/lab/Documents/magic3Definitivo/stim/2_effect.mov 446 05-May-2017 18:18:59 -5.454474e+01 2.125076e+02 1 0
95LS24_M22 4 64 9 45 45 right 1 5.000000e-01 /Users/lab/Documents/magic3Definitivo/stim/2_effect.mov 545 05-May-2017 18:19:24 -3.334397e+02 -4.998655e+02 1 1
95LS24_M22 4 65 68 -45 -45 left 1 5.000000e-01 /Users/lab/Documents/magic3Definitivo/stim/9_effect.mov 444 05-May-2017 18:19:27 6.367504e+01 3.761785e+02 1 0
95LS24_M22 4 66 16 -45 -45 left 1 5.000000e-01 /Users/lab/Documents/magic3Definitivo/stim/2_noeffect.mov 475 05-May-2017 18:19:30 8.122570e+01 1.655242e+01 0 0
95LS24_M22 4 67 40 -45 -45 left 1 5.000000e-01 /Users/lab/Documents/magic3Definitivo/stim/5_noeffect.mov 355 05-May-2017 18:19:32 1.112404e+02 3.230308e+02 0 0
95LS24_M22 4 68 56 -45 -45 left 1 5.000000e-01 /Users/lab/Documents/magic3Definitivo/stim/7_noeffect.mov 480 05-May-2017 18:19:51 1.646264e+02 -1.556063e+02 0 1
95LS24_M22 4 69 37 45 45 right 1 5.000000e-01 /Users/lab/Documents/magic3Definitivo/stim/5_noeffect.mov 403 05-May-2017 18:19:54 4.737817e+02 -1.354610e+02 0 0
95LS24_M22 4 70 21 45 45 right 1 5.000000e-01 /Users/lab/Documents/magic3Definitivo/stim/3_noeffect.mov 433 05-May-2017 18:19:57 2.436188e+02 -4.607130e+02 0 0
95LS24_M22 4 71 4 -45 -45 left 1 5.000000e-01 /Users/lab/Documents/magic3Definitivo/stim/1_effect.mov 475 05-May-2017 18:19:59 4.791925e+01 3.940294e+02 1 0
95LS24_M22 4 72 20 -45 -45 left 1 5.000000e-01 /Users/lab/Documents/magic3Definitivo/stim/3_effect.mov 560 05-May-2017 18:20:17 -1.260327e+02 1.028805e+02 1 1
95LS24_M22 4 73 15 -45 45 left 1 5.000000e-01 /Users/lab/Documents/magic3Definitivo/stim/2_noeffect.mov 640 05-May-2017 18:20:20 -2.749276e+02 -4.705594e+02 0 0
95LS24_M22 4 74 51 -45 45 left 1 5.000000e-01 /Users/lab/Documents/magic3Definitivo/stim/7_effect.mov 611 05-May-2017 18:20:23 -1.676076e+02 1.947571e+02 1 0
95LS24_M22 4 75 29 45 45 right 1 5.000000e-01 /Users/lab/Documents/magic3Definitivo/stim/4_noeffect.mov 454 05-May-2017 18:20:26 -1.143194e+02 -3.338877e+02 0 0
95LS24_M22 4 76 59 -45 45 left 1 5.000000e-01 /Users/lab/Documents/magic3Definitivo/stim/8_effect.mov 509 05-May-2017 18:20:47 2.392677e+02 3.340243e+02 1 1
95LS24_M22 4 77 1 45 45 right 1 5.000000e-01 /Users/lab/Documents/magic3Definitivo/stim/1_effect.mov 470 05-May-2017 18:20:49 -4.907255e+02 -5.241150e+01 1 0
95LS24_M22 4 78 58 45 -45 right 1 5.000000e-01 /Users/lab/Documents/magic3Definitivo/stim/8_effect.mov 545 05-May-2017 18:20:52 -1.465905e+02 3.776190e+01 1 0
95LS24_M22 4 79 19 -45 45 left 1 5.000000e-01 /Users/lab/Documents/magic3Definitivo/stim/3_effect.mov 523 05-May-2017 18:20:55 -4.189688e+01 -4.130974e+02 1 0
95LS24_M22 4 80 39 -45 45 left 1 5.000000e-01 /Users/lab/Documents/magic3Definitivo/stim/5_noeffect.mov 443 05-May-2017 18:20:58 1.873329e+02 -1.065552e+02 0 0
