subject_name subjectNumber iTrial unshuffled_trial targetOrientation flankersOrientation response correct onscreen_stim_duration magicShows rt date time_of_day deltaX deltaY surpriseClip isClipTrial
81NN30_F19 1 1 20 -45 -45 right 0 5.000000e-01 /Users/lab/Documents/magic3Definitivo/stim/3_effect.mov 432 27-Apr-2017 16:13:02 3.427088e+02 -2.414726e+02 1 1
81NN30_F19 1 2 80 -45 -45 right 0 5.000000e-01 /Users/lab/Documents/magic3Definitivo/stim/10_noeffect.mov 714 27-Apr-2017 16:13:05 -4.475015e+02 3.569784e+02 0 0
81NN30_F19 1 3 19 -45 45 left 1 5.000000e-01 /Users/lab/Documents/magic3Definitivo/stim/3_effect.mov 558 27-Apr-2017 16:13:07 -1.745805e+02 -4.889925e-01 1 0
81NN30_F19 1 4 26 45 -45 left 0 5.000000e-01 /Users/lab/Documents/magic3Definitivo/stim/4_effect.mov 515 27-Apr-2017 16:13:24 -5.608572e+01 -3.071018e+00 1 1
81NN30_F19 1 5 46 45 -45 left 0 5.000000e-01 /Users/lab/Documents/magic3Definitivo/stim/6_noeffect.mov 660 27-Apr-2017 16:13:27 2.906091e+02 4.320406e+02 0 0
81NN30_F19 1 6 49 45 45 left 0 5.000000e-01 /Users/lab/Documents/magic3Definitivo/stim/7_effect.mov 627 27-Apr-2017 16:13:30 -1.737274e+02 -3.421406e+02 1 0
81NN30_F19 1 7 68 -45 -45 right 0 5.000000e-01 /Users/lab/Documents/magic3Definitivo/stim/9_effect.mov 711 27-Apr-2017 16:13:33 -4.047955e+02 4.984751e+02 1 0
81NN30_F19 1 8 28 -45 -45 left 1 5.000000e-01 /Users/lab/Documents/magic3Definitivo/stim/4_effect.mov 845 27-Apr-2017 16:13:50 3.220119e+02 2.268016e+02 1 1
81NN30_F19 1 9 53 45 45 left 0 5.000000e-01 /Users/lab/Documents/magic3Definitivo/stim/7_noeffect.mov 561 27-Apr-2017 16:13:53 6.853880e+01 -3.002268e+02 0 0
81NN30_F19 1 10 41 45 45 left 0 5.000000e-01 /Users/lab/Documents/magic3Definitivo/stim/6_effect.mov 738 27-Apr-2017 16:13:56 -4.090110e+02 3.696278e+02 1 0
81NN30_F19 1 11 29 45 45 left 0 5.000000e-01 /Users/lab/Documents/magic3Definitivo/stim/4_noeffect.mov 729 27-Apr-2017 16:13:59 4.171949e+01 -3.701946e+01 0 0
81NN30_F19 1 12 51 -45 45 left 1 5.000000e-01 /Users/lab/Documents/magic3Definitivo/stim/7_effect.mov 611 27-Apr-2017 16:14:18 1.134311e+02 2.880179e+02 1 1
81NN30_F19 1 13 42 45 -45 right 1 5.000000e-01 /Users/lab/Documents/magic3Definitivo/stim/6_effect.mov 460 27-Apr-2017 16:14:21 1.226939e+02 4.127381e+02 1 0
81NN30_F19 1 14 1 45 45 left 0 5.000000e-01 /Users/lab/Documents/magic3Definitivo/stim/1_effect.mov 528 27-Apr-2017 16:14:24 8.708806e+01 4.727258e+02 1 0
81NN30_F19 1 15 69 45 45 left 0 5.000000e-01 /Users/lab/Documents/magic3Definitivo/stim/9_noeffect.mov 591 27-Apr-2017 16:14:27 -3.771044e+02 -2.937500e+02 0 0
81NN30_F19 1 16 52 -45 -45 left 1 5.000000e-01 /Users/lab/Documents/magic3Definitivo/stim/7_effect.mov 473 27-Apr-2017 16:14:45 -3.087420e+02 -3.105770e+02 1 1
81NN30_F19 1 17 56 -45 -45 right 0 5.000000e-01 /Users/lab/Documents/magic3Definitivo/stim/7_noeffect.mov 490 27-Apr-2017 16:14:48 4.867971e+01 -4.780648e+02 0 0
81NN30_F19 1 18 34 45 -45 left 0 5.000000e-01 /Users/lab/Documents/magic3Definitivo/stim/5_effect.mov 426 27-Apr-2017 16:14:51 1.786382e+02 4.516080e+02 1 0
81NN30_F19 1 19 38 45 -45 right 1 5.000000e-01 /Users/lab/Documents/magic3Definitivo/stim/5_noeffect.mov 499 27-Apr-2017 16:14:54 3.967500e+02 2.265390e+02 0 0
81NN30_F19 1 20 60 -45 -45 right 0 5.000000e-01 /Users/lab/Documents/magic3Definitivo/stim/8_effect.mov 546 27-Apr-2017 16:15:14 4.848330e+01 2.513222e+02 1 1
81NN30_F19 1 21 78 45 -45 right 1 5.000000e-01 /Users/lab/Documents/magic3Definitivo/stim/10_noeffect.mov 444 27-Apr-2017 16:15:17 -1.813696e+02 -2.581880e+02 0 0
81NN30_F19 1 22 17 45 45 left 0 5.000000e-01 /Users/lab/Documents/magic3Definitivo/stim/3_effect.mov 595 27-Apr-2017 16:15:20 -1.229519e+02 7.450036e+01 1 0
81NN30_F19 1 23 55 -45 45 right 0 5.000000e-01 /Users/lab/Documents/magic3Definitivo/stim/7_noeffect.mov 660 27-Apr-2017 16:15:23 -5.231757e+01 2.990428e+02 0 0
81NN30_F19 1 24 4 -45 -45 left 1 5.000000e-01 /Users/lab/Documents/magic3Definitivo/stim/1_effect.mov 577 27-Apr-2017 16:15:48 9.982878e+01 2.446855e+01 1 1
81NN30_F19 1 25 43 -45 45 right 0 5.000000e-01 /Users/lab/Documents/magic3Definitivo/stim/6_effect.mov 628 27-Apr-2017 16:15:51 -2.532817e+02 2.063135e+02 1 0
81NN30_F19 1 26 30 45 -45 left 0 5.000000e-01 /Users/lab/Documents/magic3Definitivo/stim/4_noeffect.mov 491 27-Apr-2017 16:15:53 1.873301e+02 -3.185461e+02 0 0
81NN30_F19 1 27 2 45 -45 right 1 5.000000e-01 /Users/lab/Documents/magic3Definitivo/stim/1_effect.mov 628 27-Apr-2017 16:15:56 4.496554e+00 -2.228694e+02 1 0
81NN30_F19 1 28 8 -45 -45 right 0 5.000000e-01 /Users/lab/Documents/magic3Definitivo/stim/1_noeffect.mov 611 27-Apr-2017 16:16:21 -2.304718e+02 4.342808e+02 1 1
81NN30_F19 1 29 5 45 45 left 0 5.000000e-01 /Users/lab/Documents/magic3Definitivo/stim/1_noeffect.mov 544 27-Apr-2017 16:16:24 -3.027057e+02 3.886080e+01 1 0
81NN30_F19 1 30 25 45 45 left 0 5.000000e-01 /Users/lab/Documents/magic3Definitivo/stim/4_effect.mov 662 27-Apr-2017 16:16:27 1.976115e+02 -1.387988e+02 1 0
81NN30_F19 1 31 47 -45 45 right 0 5.000000e-01 /Users/lab/Documents/magic3Definitivo/stim/6_noeffect.mov 911 27-Apr-2017 16:16:30 -3.405564e+02 1.156984e+02 0 0
81NN30_F19 1 32 57 45 45 right 1 5.000000e-01 /Users/lab/Documents/magic3Definitivo/stim/8_effect.mov 694 27-Apr-2017 16:16:51 6.752575e+01 3.698302e+02 1 1
81NN30_F19 1 33 58 45 -45 left 0 5.000000e-01 /Users/lab/Documents/magic3Definitivo/stim/8_effect.mov 728 27-Apr-2017 16:16:54 -4.664203e+02 2.800141e+02 1 0
81NN30_F19 1 34 62 45 -45 right 1 5.000000e-01 /Users/lab/Documents/magic3Definitivo/stim/8_noeffect.mov 594 27-Apr-2017 16:16:57 9.574771e+01 -4.714416e+02 0 0
81NN30_F19 1 35 44 -45 -45 left 1 5.000000e-01 /Users/lab/Documents/magic3Definitivo/stim/6_effect.mov 829 27-Apr-2017 16:17:00 -4.409717e+02 -3.502591e+02 1 0
81NN30_F19 1 36 64 -45 -45 left 1 5.000000e-01 /Users/lab/Documents/magic3Definitivo/stim/8_noeffect.mov 861 27-Apr-2017 16:17:21 -2.913807e+02 -4.530798e+02 0 1
81NN30_F19 1 37 15 -45 45 left 1 5.000000e-01 /Users/lab/Documents/magic3Definitivo/stim/2_noeffect.mov 844 27-Apr-2017 16:17:24 -1.777198e+02 -4.523940e+02 0 0
81NN30_F19 1 38 40 -45 -45 right 0 5.000000e-01 /Users/lab/Documents/magic3Definitivo/stim/5_noeffect.mov 578 27-Apr-2017 16:17:27 3.967784e+02 -4.615371e+01 0 0
81NN30_F19 1 39 3 -45 45 left 1 5.000000e-01 /Users/lab/Documents/magic3Definitivo/stim/1_effect.mov 945 27-Apr-2017 16:17:30 -5.638503e+01 4.738240e+01 1 0
81NN30_F19 1 40 72 -45 -45 left 1 5.000000e-01 /Users/lab/Documents/magic3Definitivo/stim/9_noeffect.mov 692 27-Apr-2017 16:17:52 -8.016130e+01 -1.961566e+02 0 1
81NN30_F19 1 41 76 -45 -45 left 1 5.000000e-01 /Users/lab/Documents/magic3Definitivo/stim/10_effect.mov 662 27-Apr-2017 16:17:55 1.684144e+02 3.070349e+02 1 0
81NN30_F19 1 42 36 -45 45 right 0 5.000000e-01 /Users/lab/Documents/magic3Definitivo/stim/5_effect.mov 728 27-Apr-2017 16:17:57 1.223146e+02 4.685804e+02 1 0
81NN30_F19 1 43 77 45 45 right 1 5.000000e-01 /Users/lab/Documents/magic3Definitivo/stim/10_noeffect.mov 671 27-Apr-2017 16:18:00 1.303425e+02 -1.913516e+02 0 0
81NN30_F19 1 44 71 -45 45 left 1 5.000000e-01 /Users/lab/Documents/magic3Definitivo/stim/9_noeffect.mov 743 27-Apr-2017 16:18:22 -3.697588e+01 -3.990227e+02 0 1
81NN30_F19 1 45 54 45 -45 right 1 5.000000e-01 /Users/lab/Documents/magic3Definitivo/stim/7_noeffect.mov 711 27-Apr-2017 16:18:25 -2.189525e+02 1.532537e+02 0 0
81NN30_F19 1 46 16 -45 -45 left 1 5.000000e-01 /Users/lab/Documents/magic3Definitivo/stim/2_noeffect.mov 595 27-Apr-2017 16:18:28 2.589806e+02 -1.252420e+02 0 0
81NN30_F19 1 47 50 45 -45 right 1 5.000000e-01 /Users/lab/Documents/magic3Definitivo/stim/7_effect.mov 512 27-Apr-2017 16:18:31 -2.562648e+02 -3.510009e+02 1 0
81NN30_F19 1 48 67 -45 45 left 1 5.000000e-01 /Users/lab/Documents/magic3Definitivo/stim/9_effect.mov 594 27-Apr-2017 16:18:53 1.545183e+02 2.286030e+02 1 1
81NN30_F19 1 49 75 -45 45 left 1 5.000000e-01 /Users/lab/Documents/magic3Definitivo/stim/10_effect.mov 679 27-Apr-2017 16:18:56 -2.116044e+02 -3.549211e+02 1 0
81NN30_F19 1 50 59 -45 45 left 1 5.000000e-01 /Users/lab/Documents/magic3Definitivo/stim/8_effect.mov 827 27-Apr-2017 16:18:59 -5.997486e+01 4.017628e+02 1 0
81NN30_F19 1 51 32 -45 -45 left 1 5.000000e-01 /Users/lab/Documents/magic3Definitivo/stim/4_noeffect.mov 762 27-Apr-2017 16:19:02 -1.730086e+02 -4.005569e+02 0 0
81NN30_F19 1 52 24 -45 -45 left 1 5.000000e-01 /Users/lab/Documents/magic3Definitivo/stim/3_noeffect.mov 627 27-Apr-2017 16:19:20 2.205836e+02 1.647760e+02 0 1
81NN30_F19 1 53 70 45 -45 right 1 5.000000e-01 /Users/lab/Documents/magic3Definitivo/stim/9_noeffect.mov 578 27-Apr-2017 16:19:23 -1.612157e+02 4.605274e+02 0 0
81NN30_F19 1 54 74 45 -45 right 1 5.000000e-01 /Users/lab/Documents/magic3Definitivo/stim/10_effect.mov 578 27-Apr-2017 16:19:26 -3.279274e+02 -4.427585e+02 1 0
81NN30_F19 1 55 23 -45 45 left 1 5.000000e-01 /Users/lab/Documents/magic3Definitivo/stim/3_noeffect.mov 578 27-Apr-2017 16:19:29 3.810529e+01 -2.830085e+01 0 0
81NN30_F19 1 56 45 45 45 left 0 5.000000e-01 /Users/lab/Documents/magic3Definitivo/stim/6_noeffect.mov 611 27-Apr-2017 16:19:43 4.203999e+02 -3.105246e+02 0 1
81NN30_F19 1 57 18 45 -45 right 1 5.000000e-01 /Users/lab/Documents/magic3Definitivo/stim/3_effect.mov 645 27-Apr-2017 16:19:46 -3.824284e+02 2.232634e+02 1 0
81NN30_F19 1 58 31 -45 45 left 1 5.000000e-01 /Users/lab/Documents/magic3Definitivo/stim/4_noeffect.mov 529 27-Apr-2017 16:19:49 -2.460993e+02 -2.113312e+02 0 0
81NN30_F19 1 59 65 45 45 right 1 5.000000e-01 /Users/lab/Documents/magic3Definitivo/stim/9_effect.mov 628 27-Apr-2017 16:19:52 -1.406408e+01 2.038185e+02 1 0
81NN30_F19 1 60 27 -45 45 left 1 5.000000e-01 /Users/lab/Documents/magic3Definitivo/stim/4_effect.mov 678 27-Apr-2017 16:20:09 2.167619e+02 3.008128e+02 1 1
81NN30_F19 1 61 73 45 45 right 1 5.000000e-01 /Users/lab/Documents/magic3Definitivo/stim/10_effect.mov 561 27-Apr-2017 16:20:12 -2.399966e+01 2.046409e+02 1 0
81NN30_F19 1 62 63 -45 45 left 1 5.000000e-01 /Users/lab/Documents/magic3Definitivo/stim/8_noeffect.mov 646 27-Apr-2017 16:20:15 2.054967e+02 4.555042e+02 0 0
81NN30_F19 1 63 9 45 45 right 1 5.000000e-01 /Users/lab/Documents/magic3Definitivo/stim/2_effect.mov 579 27-Apr-2017 16:20:18 9.140741e+01 -3.066726e+02 1 0
81NN30_F19 1 64 66 45 -45 right 1 5.000000e-01 /Users/lab/Documents/magic3Definitivo/stim/9_effect.mov 812 27-Apr-2017 16:20:40 3.410806e+02 -4.426454e+02 1 1
81NN30_F19 1 65 36 -45 -45 left 1 5.000000e-01 /Users/lab/Documents/magic3Definitivo/stim/5_effect.mov 595 27-Apr-2017 16:20:43 -7.258782e+01 -1.746579e+02 1 0
81NN30_F19 1 66 6 45 -45 right 1 5.000000e-01 /Users/lab/Documents/magic3Definitivo/stim/1_noeffect.mov 562 27-Apr-2017 16:20:46 4.498619e+02 3.400473e+02 1 0
81NN30_F19 1 67 22 45 -45 right 1 5.000000e-01 /Users/lab/Documents/magic3Definitivo/stim/3_noeffect.mov 662 27-Apr-2017 16:20:48 3.854344e+02 3.012021e+02 0 0
81NN30_F19 1 68 12 -45 -45 left 1 5.000000e-01 /Users/lab/Documents/magic3Definitivo/stim/2_effect.mov 595 27-Apr-2017 16:21:14 1.590169e+02 -2.519992e+02 1 1
81NN30_F19 1 69 79 -45 45 left 1 5.000000e-01 /Users/lab/Documents/magic3Definitivo/stim/10_noeffect.mov 778 27-Apr-2017 16:21:17 2.344387e+02 3.591943e+02 0 0
81NN30_F19 1 70 48 -45 -45 left 1 5.000000e-01 /Users/lab/Documents/magic3Definitivo/stim/6_noeffect.mov 730 27-Apr-2017 16:21:20 1.235284e+01 1.951837e+02 0 0
81NN30_F19 1 71 39 -45 45 left 1 5.000000e-01 /Users/lab/Documents/magic3Definitivo/stim/5_noeffect.mov 466 27-Apr-2017 16:21:23 4.650140e+01 2.184850e+02 0 0
81NN30_F19 1 72 37 45 45 right 1 5.000000e-01 /Users/lab/Documents/magic3Definitivo/stim/5_noeffect.mov 660 27-Apr-2017 16:21:39 -9.023740e+01 -1.126009e+01 0 1
81NN30_F19 1 73 21 45 45 left 0 5.000000e-01 /Users/lab/Documents/magic3Definitivo/stim/3_noeffect.mov 594 27-Apr-2017 16:21:42 3.556763e+02 4.699905e+02 0 0
81NN30_F19 1 74 10 45 -45 right 1 5.000000e-01 /Users/lab/Documents/magic3Definitivo/stim/2_effect.mov 696 27-Apr-2017 16:21:45 2.795339e+02 4.053809e+02 1 0
81NN30_F19 1 75 61 45 45 right 1 5.000000e-01 /Users/lab/Documents/magic3Definitivo/stim/8_noeffect.mov 528 27-Apr-2017 16:21:48 4.047128e+02 4.873615e+02 0 0
81NN30_F19 1 76 33 45 45 right 1 5.000000e-01 /Users/lab/Documents/magic3Definitivo/stim/5_effect.mov 562 27-Apr-2017 16:22:05 3.835572e+01 3.852274e+02 1 1
81NN30_F19 1 77 14 45 -45 right 1 5.000000e-01 /Users/lab/Documents/magic3Definitivo/stim/2_noeffect.mov 487 27-Apr-2017 16:22:07 -1.811655e+02 -3.096391e+02 0 0
81NN30_F19 1 78 13 45 45 right 1 5.000000e-01 /Users/lab/Documents/magic3Definitivo/stim/2_noeffect.mov 414 27-Apr-2017 16:22:10 -1.197675e+02 4.350832e+02 0 0
81NN30_F19 1 79 7 -45 45 left 1 5.000000e-01 /Users/lab/Documents/magic3Definitivo/stim/1_noeffect.mov 595 27-Apr-2017 16:22:13 3.547868e+02 1.620033e+01 1 0
81NN30_F19 1 80 11 -45 45 left 1 5.000000e-01 /Users/lab/Documents/magic3Definitivo/stim/2_effect.mov 662 27-Apr-2017 16:22:16 -2.701505e+02 -4.842961e+02 1 0
