subject_name subjectNumber iTrial unshuffled_trial targetOrientation flankersOrientation response correct onscreen_stim_duration magicShows rt date time_of_day deltaX deltaY surpriseClip isClipTrial
62GT30_F19 4 1 27 -45 45 left 1 5.000000e-01 /Users/lab/Documents/magic3Definitivo/stim/4_effect.mov 1011 03-May-2017 16:34:36 -3.281664e+01 -2.308367e+02 1 1
62GT30_F19 4 2 14 45 -45 right 1 5.000000e-01 /Users/lab/Documents/magic3Definitivo/stim/2_noeffect.mov 559 03-May-2017 16:34:39 -2.857352e+02 -2.511302e+01 0 0
62GT30_F19 4 3 8 -45 -45 left 1 5.000000e-01 /Users/lab/Documents/magic3Definitivo/stim/1_noeffect.mov 793 03-May-2017 16:34:42 -4.152036e+02 1.318673e+02 1 0
62GT30_F19 4 4 75 -45 45 left 1 5.000000e-01 /Users/lab/Documents/magic3Definitivo/stim/10_effect.mov 946 03-May-2017 16:34:57 3.073221e+02 -5.399457e+01 1 1
62GT30_F19 4 5 1 45 45 right 1 5.000000e-01 /Users/lab/Documents/magic3Definitivo/stim/1_effect.mov 1079 03-May-2017 16:35:00 -3.453148e+02 2.652368e+02 1 0
62GT30_F19 4 6 67 -45 45 left 1 5.000000e-01 /Users/lab/Documents/magic3Definitivo/stim/9_effect.mov 561 03-May-2017 16:35:03 4.159607e+01 8.948004e+01 1 0
62GT30_F19 4 7 4 -45 -45 left 1 5.000000e-01 /Users/lab/Documents/magic3Definitivo/stim/1_effect.mov 877 03-May-2017 16:35:06 -3.952898e+02 -2.807979e+02 1 0
62GT30_F19 4 8 60 -45 -45 left 1 5.000000e-01 /Users/lab/Documents/magic3Definitivo/stim/8_effect.mov 809 03-May-2017 16:35:27 -1.164215e+02 -4.986079e+02 1 1
62GT30_F19 4 9 6 45 -45 right 1 5.000000e-01 /Users/lab/Documents/magic3Definitivo/stim/1_noeffect.mov 695 03-May-2017 16:35:30 7.524954e+01 3.041836e+02 1 0
62GT30_F19 4 10 79 -45 45 left 1 5.000000e-01 /Users/lab/Documents/magic3Definitivo/stim/10_noeffect.mov 828 03-May-2017 16:35:34 4.100705e+02 -9.824181e+01 0 0
62GT30_F19 4 11 57 45 45 right 1 5.000000e-01 /Users/lab/Documents/magic3Definitivo/stim/8_effect.mov 662 03-May-2017 16:35:37 -2.187650e+02 5.062685e+01 1 0
62GT30_F19 4 12 34 45 -45 right 1 5.000000e-01 /Users/lab/Documents/magic3Definitivo/stim/5_effect.mov 1010 03-May-2017 16:35:54 4.031331e+02 -1.660883e+02 1 1
62GT30_F19 4 13 5 45 45 right 1 5.000000e-01 /Users/lab/Documents/magic3Definitivo/stim/1_noeffect.mov 911 03-May-2017 16:35:57 3.293989e+02 -3.875164e+02 1 0
62GT30_F19 4 14 64 -45 -45 left 1 5.000000e-01 /Users/lab/Documents/magic3Definitivo/stim/8_noeffect.mov 914 03-May-2017 16:36:00 -3.239584e+02 2.544187e+02 0 0
62GT30_F19 4 15 19 -45 45 left 1 5.000000e-01 /Users/lab/Documents/magic3Definitivo/stim/3_effect.mov 1178 03-May-2017 16:36:04 -2.608083e+02 -1.214843e+02 1 0
62GT30_F19 4 16 9 45 45 right 1 5.000000e-01 /Users/lab/Documents/magic3Definitivo/stim/2_effect.mov 976 03-May-2017 16:36:29 -7.068257e+01 -1.044032e+02 1 1
62GT30_F19 4 17 43 -45 45 left 1 5.000000e-01 /Users/lab/Documents/magic3Definitivo/stim/6_effect.mov 828 03-May-2017 16:36:32 4.739637e+02 2.335322e+02 1 0
62GT30_F19 4 18 31 -45 45 left 1 5.000000e-01 /Users/lab/Documents/magic3Definitivo/stim/4_noeffect.mov 610 03-May-2017 16:36:35 4.959556e+01 -4.132046e+02 0 0
62GT30_F19 4 19 62 45 -45 right 1 5.000000e-01 /Users/lab/Documents/magic3Definitivo/stim/8_noeffect.mov 562 03-May-2017 16:36:38 1.094449e+02 -3.993939e+02 0 0
62GT30_F19 4 20 3 -45 45 left 1 5.000000e-01 /Users/lab/Documents/magic3Definitivo/stim/1_effect.mov 960 03-May-2017 16:37:03 3.294933e+02 -1.893968e+02 1 1
62GT30_F19 4 21 76 -45 -45 right 0 5.000000e-01 /Users/lab/Documents/magic3Definitivo/stim/10_effect.mov 611 03-May-2017 16:37:06 -4.979060e+02 1.163179e+02 1 0
62GT30_F19 4 22 36 -45 45 left 1 5.000000e-01 /Users/lab/Documents/magic3Definitivo/stim/5_effect.mov 711 03-May-2017 16:37:09 -2.307153e+02 3.679986e+02 1 0
62GT30_F19 4 23 23 -45 45 left 1 5.000000e-01 /Users/lab/Documents/magic3Definitivo/stim/3_noeffect.mov 626 03-May-2017 16:37:12 -3.916409e+02 -3.490383e+02 0 0
62GT30_F19 4 24 17 45 45 right 1 5.000000e-01 /Users/lab/Documents/magic3Definitivo/stim/3_effect.mov 860 03-May-2017 16:37:31 -2.917476e+02 1.590380e+02 1 1
62GT30_F19 4 25 25 45 45 right 1 5.000000e-01 /Users/lab/Documents/magic3Definitivo/stim/4_effect.mov 561 03-May-2017 16:37:34 -3.203916e+02 -1.862237e+02 1 0
62GT30_F19 4 26 40 -45 -45 left 1 5.000000e-01 /Users/lab/Documents/magic3Definitivo/stim/5_noeffect.mov 910 03-May-2017 16:37:37 -1.719140e+02 3.897703e+02 0 0
62GT30_F19 4 27 66 45 -45 right 1 5.000000e-01 /Users/lab/Documents/magic3Definitivo/stim/9_effect.mov 794 03-May-2017 16:37:40 1.063255e+02 3.402433e+02 1 0
62GT30_F19 4 28 69 45 45 right 1 5.000000e-01 /Users/lab/Documents/magic3Definitivo/stim/9_noeffect.mov 694 03-May-2017 16:38:02 1.214897e+02 2.093069e+02 0 1
62GT30_F19 4 29 50 45 -45 right 1 5.000000e-01 /Users/lab/Documents/magic3Definitivo/stim/7_effect.mov 560 03-May-2017 16:38:04 3.866855e+02 2.383419e+01 1 0
62GT30_F19 4 30 77 45 45 right 1 5.000000e-01 /Users/lab/Documents/magic3Definitivo/stim/10_noeffect.mov 528 03-May-2017 16:38:07 5.173329e+01 -4.460473e+02 0 0
62GT30_F19 4 31 80 -45 -45 left 1 5.000000e-01 /Users/lab/Documents/magic3Definitivo/stim/10_noeffect.mov 858 03-May-2017 16:38:10 -1.245545e+02 1.031399e+02 0 0
62GT30_F19 4 32 53 45 45 right 1 5.000000e-01 /Users/lab/Documents/magic3Definitivo/stim/7_noeffect.mov 676 03-May-2017 16:38:29 -2.704823e+02 4.556973e+02 0 1
62GT30_F19 4 33 78 45 -45 right 1 5.000000e-01 /Users/lab/Documents/magic3Definitivo/stim/10_noeffect.mov 612 03-May-2017 16:38:32 8.043937e+01 -4.853097e+01 0 0
62GT30_F19 4 34 47 -45 45 left 1 5.000000e-01 /Users/lab/Documents/magic3Definitivo/stim/6_noeffect.mov 661 03-May-2017 16:38:35 -2.265898e+02 3.428364e+02 0 0
62GT30_F19 4 35 55 -45 45 left 1 5.000000e-01 /Users/lab/Documents/magic3Definitivo/stim/7_noeffect.mov 528 03-May-2017 16:38:38 2.281439e+02 -1.727364e+02 0 0
62GT30_F19 4 36 59 -45 45 left 1 5.000000e-01 /Users/lab/Documents/magic3Definitivo/stim/8_effect.mov 976 03-May-2017 16:38:59 -2.701904e+02 1.715381e+02 1 1
62GT30_F19 4 37 2 45 -45 right 1 5.000000e-01 /Users/lab/Documents/magic3Definitivo/stim/1_effect.mov 1010 03-May-2017 16:39:03 -5.032717e+01 3.379372e+02 1 0
62GT30_F19 4 38 72 -45 -45 left 1 5.000000e-01 /Users/lab/Documents/magic3Definitivo/stim/9_noeffect.mov 528 03-May-2017 16:39:05 -8.681990e+01 3.441745e+02 0 0
62GT30_F19 4 39 24 -45 -45 left 1 5.000000e-01 /Users/lab/Documents/magic3Definitivo/stim/3_noeffect.mov 843 03-May-2017 16:39:09 -2.190913e+02 -4.541095e+02 0 0
62GT30_F19 4 40 36 -45 -45 left 1 5.000000e-01 /Users/lab/Documents/magic3Definitivo/stim/5_effect.mov 877 03-May-2017 16:39:26 4.201038e+02 3.574959e+02 1 1
62GT30_F19 4 41 39 -45 45 right 0 5.000000e-01 /Users/lab/Documents/magic3Definitivo/stim/5_noeffect.mov 0 03-May-2017 16:39:28 2.539842e+02 1.136835e+02 0 0
62GT30_F19 4 42 74 45 -45 right 1 5.000000e-01 /Users/lab/Documents/magic3Definitivo/stim/10_effect.mov 660 03-May-2017 16:39:31 3.023486e+02 -7.944607e+01 1 0
62GT30_F19 4 43 11 -45 45 left 1 5.000000e-01 /Users/lab/Documents/magic3Definitivo/stim/2_effect.mov 711 03-May-2017 16:39:34 4.444289e+02 4.879778e+02 1 0
62GT30_F19 4 44 38 45 -45 right 1 5.000000e-01 /Users/lab/Documents/magic3Definitivo/stim/5_noeffect.mov 793 03-May-2017 16:39:51 -1.592907e+02 -2.721377e+02 0 1
62GT30_F19 4 45 65 45 45 right 1 5.000000e-01 /Users/lab/Documents/magic3Definitivo/stim/9_effect.mov 461 03-May-2017 16:39:53 3.321528e+02 2.807469e+02 1 0
62GT30_F19 4 46 42 45 -45 right 1 5.000000e-01 /Users/lab/Documents/magic3Definitivo/stim/6_effect.mov 613 03-May-2017 16:39:56 4.051036e+02 2.659790e+02 1 0
62GT30_F19 4 47 30 45 -45 right 1 5.000000e-01 /Users/lab/Documents/magic3Definitivo/stim/4_noeffect.mov 425 03-May-2017 16:39:59 1.919009e+02 -2.138879e+02 0 0
62GT30_F19 4 48 10 45 -45 right 1 5.000000e-01 /Users/lab/Documents/magic3Definitivo/stim/2_effect.mov 609 03-May-2017 16:40:24 -3.314409e+02 1.029864e+02 1 1
62GT30_F19 4 49 54 45 -45 right 1 5.000000e-01 /Users/lab/Documents/magic3Definitivo/stim/7_noeffect.mov 844 03-May-2017 16:40:28 -4.174606e+02 -1.507903e+02 0 0
62GT30_F19 4 50 22 45 -45 right 1 5.000000e-01 /Users/lab/Documents/magic3Definitivo/stim/3_noeffect.mov 1027 03-May-2017 16:40:31 -1.867746e+02 3.062801e+02 0 0
62GT30_F19 4 51 68 -45 -45 right 0 5.000000e-01 /Users/lab/Documents/magic3Definitivo/stim/9_effect.mov 489 03-May-2017 16:40:34 -3.663077e+02 -6.609200e+01 1 0
62GT30_F19 4 52 15 -45 45 left 1 5.000000e-01 /Users/lab/Documents/magic3Definitivo/stim/2_noeffect.mov 743 03-May-2017 16:40:59 1.169990e+02 -2.155493e+01 0 1
62GT30_F19 4 53 63 -45 45 left 1 5.000000e-01 /Users/lab/Documents/magic3Definitivo/stim/8_noeffect.mov 1363 03-May-2017 16:41:02 -1.961287e+02 2.363143e+02 0 0
62GT30_F19 4 54 13 45 45 right 1 5.000000e-01 /Users/lab/Documents/magic3Definitivo/stim/2_noeffect.mov 485 03-May-2017 16:41:05 1.258374e+02 3.639445e+02 0 0
62GT30_F19 4 55 45 45 45 right 1 5.000000e-01 /Users/lab/Documents/magic3Definitivo/stim/6_noeffect.mov 626 03-May-2017 16:41:08 -8.570257e+01 6.997271e+01 0 0
62GT30_F19 4 56 28 -45 -45 left 1 5.000000e-01 /Users/lab/Documents/magic3Definitivo/stim/4_effect.mov 943 03-May-2017 16:41:25 -4.457407e+02 -1.648136e+02 1 1
62GT30_F19 4 57 52 -45 -45 left 1 5.000000e-01 /Users/lab/Documents/magic3Definitivo/stim/7_effect.mov 595 03-May-2017 16:41:28 1.532766e+02 -3.828951e+02 1 0
62GT30_F19 4 58 7 -45 45 right 0 5.000000e-01 /Users/lab/Documents/magic3Definitivo/stim/1_noeffect.mov 861 03-May-2017 16:41:32 1.694676e+02 3.917302e+02 1 0
62GT30_F19 4 59 33 45 45 right 1 5.000000e-01 /Users/lab/Documents/magic3Definitivo/stim/5_effect.mov 1211 03-May-2017 16:41:35 3.380065e+02 -4.124643e+02 1 0
62GT30_F19 4 60 48 -45 -45 left 1 5.000000e-01 /Users/lab/Documents/magic3Definitivo/stim/6_noeffect.mov 726 03-May-2017 16:41:50 1.810922e+02 -1.755559e+01 0 1
62GT30_F19 4 61 49 45 45 NORESP 0 5.000000e-01 /Users/lab/Documents/magic3Definitivo/stim/7_effect.mov 3009 03-May-2017 16:41:55 -4.655075e+02 3.093535e+02 1 0
62GT30_F19 4 62 58 45 -45 right 1 5.000000e-01 /Users/lab/Documents/magic3Definitivo/stim/8_effect.mov 778 03-May-2017 16:41:58 -1.198766e+02 -1.094130e+02 1 0
62GT30_F19 4 63 20 -45 -45 left 1 5.000000e-01 /Users/lab/Documents/magic3Definitivo/stim/3_effect.mov 843 03-May-2017 16:42:01 -2.534865e+02 2.316923e+02 1 0
62GT30_F19 4 64 37 45 45 right 1 5.000000e-01 /Users/lab/Documents/magic3Definitivo/stim/5_noeffect.mov 794 03-May-2017 16:42:18 1.440788e+02 -1.819129e+02 0 1
62GT30_F19 4 65 16 -45 -45 left 1 5.000000e-01 /Users/lab/Documents/magic3Definitivo/stim/2_noeffect.mov 1094 03-May-2017 16:42:22 -3.263920e+02 -3.556273e+02 0 0
62GT30_F19 4 66 21 45 45 right 1 5.000000e-01 /Users/lab/Documents/magic3Definitivo/stim/3_noeffect.mov 678 03-May-2017 16:42:25 -9.081671e+01 3.816153e+02 0 0
62GT30_F19 4 67 44 -45 -45 left 1 5.000000e-01 /Users/lab/Documents/magic3Definitivo/stim/6_effect.mov 761 03-May-2017 16:42:28 -7.935064e+01 2.530924e+02 1 0
62GT30_F19 4 68 51 -45 45 left 1 5.000000e-01 /Users/lab/Documents/magic3Definitivo/stim/7_effect.mov 693 03-May-2017 16:42:47 1.352443e+02 2.095187e+02 1 1
62GT30_F19 4 69 71 -45 45 left 1 5.000000e-01 /Users/lab/Documents/magic3Definitivo/stim/9_noeffect.mov 678 03-May-2017 16:42:50 -5.575819e+01 5.812167e+01 0 0
62GT30_F19 4 70 61 45 45 right 1 5.000000e-01 /Users/lab/Documents/magic3Definitivo/stim/8_noeffect.mov 561 03-May-2017 16:42:53 2.483957e+02 2.057365e+02 0 0
62GT30_F19 4 71 12 -45 -45 left 1 5.000000e-01 /Users/lab/Documents/magic3Definitivo/stim/2_effect.mov 1977 03-May-2017 16:42:57 -3.799655e+02 -1.122777e+02 1 0
62GT30_F19 4 72 32 -45 -45 right 0 5.000000e-01 /Users/lab/Documents/magic3Definitivo/stim/4_noeffect.mov 1360 03-May-2017 16:43:15 6.557685e+01 -2.792238e+02 0 1
62GT30_F19 4 73 41 45 45 right 1 5.000000e-01 /Users/lab/Documents/magic3Definitivo/stim/6_effect.mov 661 03-May-2017 16:43:18 -2.762725e+02 -3.148730e+02 1 0
62GT30_F19 4 74 56 -45 -45 left 1 5.000000e-01 /Users/lab/Documents/magic3Definitivo/stim/7_noeffect.mov 1010 03-May-2017 16:43:21 -2.946371e+02 1.046877e+02 0 0
62GT30_F19 4 75 29 45 45 right 1 5.000000e-01 /Users/lab/Documents/magic3Definitivo/stim/4_noeffect.mov 1043 03-May-2017 16:43:25 1.442773e+02 -9.896591e+01 0 0
62GT30_F19 4 76 70 45 -45 right 1 5.000000e-01 /Users/lab/Documents/magic3Definitivo/stim/9_noeffect.mov 829 03-May-2017 16:43:47 -1.991074e+02 4.693809e+02 0 1
62GT30_F19 4 77 73 45 45 right 1 5.000000e-01 /Users/lab/Documents/magic3Definitivo/stim/10_effect.mov 822 03-May-2017 16:43:50 -1.443673e+02 -2.050797e+02 1 0
62GT30_F19 4 78 18 45 -45 right 1 5.000000e-01 /Users/lab/Documents/magic3Definitivo/stim/3_effect.mov 712 03-May-2017 16:43:53 -1.055892e+01 -3.940673e+02 1 0
62GT30_F19 4 79 46 45 -45 right 1 5.000000e-01 /Users/lab/Documents/magic3Definitivo/stim/6_noeffect.mov 758 03-May-2017 16:43:56 -4.745027e+02 3.665109e+02 0 0
62GT30_F19 4 80 26 45 -45 right 1 5.000000e-01 /Users/lab/Documents/magic3Definitivo/stim/4_effect.mov 511 03-May-2017 16:43:59 -1.268166e+02 1.695191e+02 1 0
