subject_name subjectNumber iTrial unshuffled_trial targetOrientation flankersOrientation response correct onscreen_stim_duration magicShows rt date time_of_day deltaX deltaY surpriseClip isClipTrial
83GP29_F19 3 1 7 -45 45 left 1 5.000000e-01 /Users/lab/Documents/magic3Definitivo/stim/1_noeffect.mov 940 11-May-2017 17:23:08 2.589819e+02 -4.398083e+02 1 1
83GP29_F19 3 2 12 -45 -45 left 1 5.000000e-01 /Users/lab/Documents/magic3Definitivo/stim/2_effect.mov 726 11-May-2017 17:23:11 -3.094504e+02 1.089635e+01 1 0
83GP29_F19 3 3 74 45 -45 right 1 5.000000e-01 /Users/lab/Documents/magic3Definitivo/stim/10_effect.mov 544 11-May-2017 17:23:14 2.223044e+02 3.781100e+02 1 0
83GP29_F19 3 4 52 -45 -45 left 1 5.000000e-01 /Users/lab/Documents/magic3Definitivo/stim/7_effect.mov 994 11-May-2017 17:23:33 4.443384e+02 -1.251082e+02 1 1
83GP29_F19 3 5 19 -45 45 left 1 5.000000e-01 /Users/lab/Documents/magic3Definitivo/stim/3_effect.mov 845 11-May-2017 17:23:37 4.757237e+02 2.188213e+02 1 0
83GP29_F19 3 6 15 -45 45 left 1 5.000000e-01 /Users/lab/Documents/magic3Definitivo/stim/2_noeffect.mov 743 11-May-2017 17:23:40 3.204773e+02 -2.791925e+02 0 0
83GP29_F19 3 7 76 -45 -45 left 1 5.000000e-01 /Users/lab/Documents/magic3Definitivo/stim/10_effect.mov 538 11-May-2017 17:23:43 3.311682e+02 4.133594e+02 1 0
83GP29_F19 3 8 75 -45 45 left 1 5.000000e-01 /Users/lab/Documents/magic3Definitivo/stim/10_effect.mov 793 11-May-2017 17:23:57 1.501122e+02 -6.174905e+01 1 1
83GP29_F19 3 9 23 -45 45 left 1 5.000000e-01 /Users/lab/Documents/magic3Definitivo/stim/3_noeffect.mov 693 11-May-2017 17:24:00 -2.628988e+02 -2.968767e+02 0 0
83GP29_F19 3 10 30 45 -45 right 1 5.000000e-01 /Users/lab/Documents/magic3Definitivo/stim/4_noeffect.mov 711 11-May-2017 17:24:03 1.773498e+02 -1.377718e+02 0 0
83GP29_F19 3 11 32 -45 -45 left 1 5.000000e-01 /Users/lab/Documents/magic3Definitivo/stim/4_noeffect.mov 761 11-May-2017 17:24:06 3.743410e+02 4.162177e+02 0 0
83GP29_F19 3 12 24 -45 -45 left 1 5.000000e-01 /Users/lab/Documents/magic3Definitivo/stim/3_noeffect.mov 775 11-May-2017 17:24:25 2.534812e+02 2.759424e+02 0 1
83GP29_F19 3 13 42 45 -45 right 1 5.000000e-01 /Users/lab/Documents/magic3Definitivo/stim/6_effect.mov 611 11-May-2017 17:24:28 2.754666e+02 2.805415e+02 1 0
83GP29_F19 3 14 2 45 -45 right 1 5.000000e-01 /Users/lab/Documents/magic3Definitivo/stim/1_effect.mov 545 11-May-2017 17:24:30 7.696228e+01 -1.667094e+02 1 0
83GP29_F19 3 15 69 45 45 right 1 5.000000e-01 /Users/lab/Documents/magic3Definitivo/stim/9_noeffect.mov 596 11-May-2017 17:24:33 -3.889898e+02 4.078905e+02 0 0
83GP29_F19 3 16 50 45 -45 right 1 5.000000e-01 /Users/lab/Documents/magic3Definitivo/stim/7_effect.mov 710 11-May-2017 17:24:52 -2.835388e+02 2.441912e+02 1 1
83GP29_F19 3 17 60 -45 -45 left 1 5.000000e-01 /Users/lab/Documents/magic3Definitivo/stim/8_effect.mov 795 11-May-2017 17:24:56 -3.971676e+02 -3.854398e+02 1 0
83GP29_F19 3 18 17 45 45 right 1 5.000000e-01 /Users/lab/Documents/magic3Definitivo/stim/3_effect.mov 695 11-May-2017 17:24:59 -1.009890e+01 8.379991e+01 1 0
83GP29_F19 3 19 54 45 -45 right 1 5.000000e-01 /Users/lab/Documents/magic3Definitivo/stim/7_noeffect.mov 578 11-May-2017 17:25:01 1.689037e+02 -4.361770e+02 0 0
83GP29_F19 3 20 56 -45 -45 left 1 5.000000e-01 /Users/lab/Documents/magic3Definitivo/stim/7_noeffect.mov 793 11-May-2017 17:25:21 4.065525e+02 4.974379e+02 0 1
83GP29_F19 3 21 57 45 45 right 1 5.000000e-01 /Users/lab/Documents/magic3Definitivo/stim/8_effect.mov 594 11-May-2017 17:25:24 3.912843e+02 -1.875013e+02 1 0
83GP29_F19 3 22 28 -45 -45 left 1 5.000000e-01 /Users/lab/Documents/magic3Definitivo/stim/4_effect.mov 546 11-May-2017 17:25:26 1.161848e+01 1.592784e+02 1 0
83GP29_F19 3 23 37 45 45 right 1 5.000000e-01 /Users/lab/Documents/magic3Definitivo/stim/5_noeffect.mov 712 11-May-2017 17:25:29 3.496383e+02 -2.101268e+02 0 0
83GP29_F19 3 24 33 45 45 right 1 5.000000e-01 /Users/lab/Documents/magic3Definitivo/stim/5_effect.mov 928 11-May-2017 17:25:47 -4.251137e+02 -3.033968e+02 1 1
83GP29_F19 3 25 66 45 -45 right 1 5.000000e-01 /Users/lab/Documents/magic3Definitivo/stim/9_effect.mov 628 11-May-2017 17:25:50 -3.002308e+02 -2.265158e+01 1 0
83GP29_F19 3 26 8 -45 -45 left 1 5.000000e-01 /Users/lab/Documents/magic3Definitivo/stim/1_noeffect.mov 778 11-May-2017 17:25:53 2.112996e+02 -3.067109e+02 1 0
83GP29_F19 3 27 38 45 -45 right 1 5.000000e-01 /Users/lab/Documents/magic3Definitivo/stim/5_noeffect.mov 528 11-May-2017 17:25:55 1.530852e+02 2.464981e+02 0 0
83GP29_F19 3 28 13 45 45 right 1 5.000000e-01 /Users/lab/Documents/magic3Definitivo/stim/2_noeffect.mov 610 11-May-2017 17:26:20 -1.804461e+02 -7.200922e+01 0 1
83GP29_F19 3 29 77 45 45 right 1 5.000000e-01 /Users/lab/Documents/magic3Definitivo/stim/10_noeffect.mov 562 11-May-2017 17:26:23 1.091183e+02 -3.096836e+02 0 0
83GP29_F19 3 30 6 45 -45 right 1 5.000000e-01 /Users/lab/Documents/magic3Definitivo/stim/1_noeffect.mov 644 11-May-2017 17:26:26 -1.859660e+02 -4.524546e+02 1 0
83GP29_F19 3 31 1 45 45 right 1 5.000000e-01 /Users/lab/Documents/magic3Definitivo/stim/1_effect.mov 645 11-May-2017 17:26:29 -4.168334e+02 3.842086e+02 1 0
83GP29_F19 3 32 20 -45 -45 left 1 5.000000e-01 /Users/lab/Documents/magic3Definitivo/stim/3_effect.mov 877 11-May-2017 17:26:47 5.491166e+01 -2.722026e+02 1 1
83GP29_F19 3 33 11 -45 45 left 1 5.000000e-01 /Users/lab/Documents/magic3Definitivo/stim/2_effect.mov 657 11-May-2017 17:26:50 2.590629e+02 -3.886240e+02 1 0
83GP29_F19 3 34 62 45 -45 right 1 5.000000e-01 /Users/lab/Documents/magic3Definitivo/stim/8_noeffect.mov 645 11-May-2017 17:26:53 3.007622e+02 1.071371e+02 0 0
83GP29_F19 3 35 58 45 -45 right 1 5.000000e-01 /Users/lab/Documents/magic3Definitivo/stim/8_effect.mov 441 11-May-2017 17:26:56 1.839042e+02 -1.847916e+01 1 0
83GP29_F19 3 36 59 -45 45 left 1 5.000000e-01 /Users/lab/Documents/magic3Definitivo/stim/8_effect.mov 961 11-May-2017 17:27:17 1.087683e+02 -2.502087e+02 1 1
83GP29_F19 3 37 47 -45 45 left 1 5.000000e-01 /Users/lab/Documents/magic3Definitivo/stim/6_noeffect.mov 826 11-May-2017 17:27:21 2.763891e+02 3.279649e+02 0 0
83GP29_F19 3 38 31 -45 45 left 1 5.000000e-01 /Users/lab/Documents/magic3Definitivo/stim/4_noeffect.mov 695 11-May-2017 17:27:24 2.330456e+02 -4.656099e+02 0 0
83GP29_F19 3 39 55 -45 45 left 1 5.000000e-01 /Users/lab/Documents/magic3Definitivo/stim/7_noeffect.mov 779 11-May-2017 17:27:27 -3.352401e+02 -2.215981e+01 0 0
83GP29_F19 3 40 5 45 45 left 0 5.000000e-01 /Users/lab/Documents/magic3Definitivo/stim/1_noeffect.mov 812 11-May-2017 17:27:52 -1.396597e+02 -2.543987e+02 1 1
83GP29_F19 3 41 10 45 -45 right 1 5.000000e-01 /Users/lab/Documents/magic3Definitivo/stim/2_effect.mov 574 11-May-2017 17:27:55 1.720395e+02 2.212351e+02 1 0
83GP29_F19 3 42 29 45 45 right 1 5.000000e-01 /Users/lab/Documents/magic3Definitivo/stim/4_noeffect.mov 545 11-May-2017 17:27:57 -7.970476e+01 -3.739608e+02 0 0
83GP29_F19 3 43 73 45 45 right 1 5.000000e-01 /Users/lab/Documents/magic3Definitivo/stim/10_effect.mov 511 11-May-2017 17:28:00 3.446663e+02 -3.684319e+02 1 0
83GP29_F19 3 44 48 -45 -45 left 1 5.000000e-01 /Users/lab/Documents/magic3Definitivo/stim/6_noeffect.mov 1160 11-May-2017 17:28:16 4.915176e+02 4.591903e+02 0 1
83GP29_F19 3 45 46 45 -45 right 1 5.000000e-01 /Users/lab/Documents/magic3Definitivo/stim/6_noeffect.mov 662 11-May-2017 17:28:19 -3.372891e+01 2.073291e+02 0 0
83GP29_F19 3 46 21 45 45 right 1 5.000000e-01 /Users/lab/Documents/magic3Definitivo/stim/3_noeffect.mov 711 11-May-2017 17:28:22 -2.753207e+02 1.074154e+02 0 0
83GP29_F19 3 47 22 45 -45 right 1 5.000000e-01 /Users/lab/Documents/magic3Definitivo/stim/3_noeffect.mov 594 11-May-2017 17:28:25 2.642588e+02 -1.738865e+02 0 0
83GP29_F19 3 48 68 -45 -45 left 1 5.000000e-01 /Users/lab/Documents/magic3Definitivo/stim/9_effect.mov 896 11-May-2017 17:28:47 1.024816e+02 4.419362e+02 1 1
83GP29_F19 3 49 34 45 -45 right 1 5.000000e-01 /Users/lab/Documents/magic3Definitivo/stim/5_effect.mov 561 11-May-2017 17:28:49 -1.359320e+02 -9.576612e+01 1 0
83GP29_F19 3 50 4 -45 -45 left 1 5.000000e-01 /Users/lab/Documents/magic3Definitivo/stim/1_effect.mov 879 11-May-2017 17:28:53 -2.403097e+02 -3.154990e+02 1 0
83GP29_F19 3 51 43 -45 45 left 1 5.000000e-01 /Users/lab/Documents/magic3Definitivo/stim/6_effect.mov 577 11-May-2017 17:28:56 1.645340e+02 1.907406e+02 1 0
83GP29_F19 3 52 25 45 45 right 1 5.000000e-01 /Users/lab/Documents/magic3Definitivo/stim/4_effect.mov 794 11-May-2017 17:29:13 -3.855678e+02 -6.164277e+01 1 1
83GP29_F19 3 53 3 -45 45 left 1 5.000000e-01 /Users/lab/Documents/magic3Definitivo/stim/1_effect.mov 678 11-May-2017 17:29:16 -1.964152e+02 4.776571e+02 1 0
83GP29_F19 3 54 36 -45 45 left 1 5.000000e-01 /Users/lab/Documents/magic3Definitivo/stim/5_effect.mov 594 11-May-2017 17:29:19 -1.014647e+02 5.725559e+01 1 0
83GP29_F19 3 55 27 -45 45 left 1 5.000000e-01 /Users/lab/Documents/magic3Definitivo/stim/4_effect.mov 862 11-May-2017 17:29:22 -1.623617e+02 6.580197e+01 1 0
83GP29_F19 3 56 71 -45 45 left 1 5.000000e-01 /Users/lab/Documents/magic3Definitivo/stim/9_noeffect.mov 794 11-May-2017 17:29:44 -2.642806e+01 4.578896e+02 0 1
83GP29_F19 3 57 70 45 -45 right 1 5.000000e-01 /Users/lab/Documents/magic3Definitivo/stim/9_noeffect.mov 629 11-May-2017 17:29:47 1.335548e+02 -6.744727e+01 0 0
83GP29_F19 3 58 16 -45 -45 left 1 5.000000e-01 /Users/lab/Documents/magic3Definitivo/stim/2_noeffect.mov 711 11-May-2017 17:29:50 -2.535817e+02 -4.476274e+02 0 0
83GP29_F19 3 59 67 -45 45 left 1 5.000000e-01 /Users/lab/Documents/magic3Definitivo/stim/9_effect.mov 694 11-May-2017 17:29:53 1.219079e+00 1.993241e+02 1 0
83GP29_F19 3 60 9 45 45 right 1 5.000000e-01 /Users/lab/Documents/magic3Definitivo/stim/2_effect.mov 744 11-May-2017 17:30:18 2.188836e+02 -4.724229e+02 1 1
83GP29_F19 3 61 80 -45 -45 left 1 5.000000e-01 /Users/lab/Documents/magic3Definitivo/stim/10_noeffect.mov 661 11-May-2017 17:30:21 -4.417724e+02 -3.195806e+02 0 0
83GP29_F19 3 62 41 45 45 right 1 5.000000e-01 /Users/lab/Documents/magic3Definitivo/stim/6_effect.mov 628 11-May-2017 17:30:24 9.870988e+01 -1.646230e+02 1 0
83GP29_F19 3 63 72 -45 -45 left 1 5.000000e-01 /Users/lab/Documents/magic3Definitivo/stim/9_noeffect.mov 660 11-May-2017 17:30:27 -2.744645e+02 2.206088e+02 0 0
83GP29_F19 3 64 65 45 45 right 1 5.000000e-01 /Users/lab/Documents/magic3Definitivo/stim/9_effect.mov 625 11-May-2017 17:30:49 1.652498e+02 -1.403856e+01 1 1
83GP29_F19 3 65 51 -45 45 left 1 5.000000e-01 /Users/lab/Documents/magic3Definitivo/stim/7_effect.mov 778 11-May-2017 17:30:52 4.393010e+02 1.609156e+02 1 0
83GP29_F19 3 66 44 -45 -45 left 1 5.000000e-01 /Users/lab/Documents/magic3Definitivo/stim/6_effect.mov 611 11-May-2017 17:30:55 -2.590380e+02 3.960587e+02 1 0
83GP29_F19 3 67 49 45 45 right 1 5.000000e-01 /Users/lab/Documents/magic3Definitivo/stim/7_effect.mov 611 11-May-2017 17:30:58 -4.428248e+02 3.421875e+01 1 0
83GP29_F19 3 68 39 -45 45 left 1 5.000000e-01 /Users/lab/Documents/magic3Definitivo/stim/5_noeffect.mov 776 11-May-2017 17:31:15 3.957997e+02 3.247833e+02 0 1
83GP29_F19 3 69 63 -45 45 left 1 5.000000e-01 /Users/lab/Documents/magic3Definitivo/stim/8_noeffect.mov 656 11-May-2017 17:31:18 -5.032859e+00 1.793579e+02 0 0
83GP29_F19 3 70 45 45 45 right 1 5.000000e-01 /Users/lab/Documents/magic3Definitivo/stim/6_noeffect.mov 662 11-May-2017 17:31:21 -9.705921e+01 3.594784e+02 0 0
83GP29_F19 3 71 64 -45 -45 left 1 5.000000e-01 /Users/lab/Documents/magic3Definitivo/stim/8_noeffect.mov 945 11-May-2017 17:31:24 -1.757648e+02 3.484451e+01 0 0
83GP29_F19 3 72 26 45 -45 right 1 5.000000e-01 /Users/lab/Documents/magic3Definitivo/stim/4_effect.mov 743 11-May-2017 17:31:41 -2.927855e+02 3.010450e+02 1 1
83GP29_F19 3 73 79 -45 45 left 1 5.000000e-01 /Users/lab/Documents/magic3Definitivo/stim/10_noeffect.mov 761 11-May-2017 17:31:44 -3.463395e+02 -4.676475e+02 0 0
83GP29_F19 3 74 78 45 -45 right 1 5.000000e-01 /Users/lab/Documents/magic3Definitivo/stim/10_noeffect.mov 711 11-May-2017 17:31:47 3.659051e+02 2.355549e+02 0 0
83GP29_F19 3 75 18 45 -45 right 1 5.000000e-01 /Users/lab/Documents/magic3Definitivo/stim/3_effect.mov 611 11-May-2017 17:31:50 -2.665347e+02 -4.274666e+02 1 0
83GP29_F19 3 76 40 -45 -45 left 1 5.000000e-01 /Users/lab/Documents/magic3Definitivo/stim/5_noeffect.mov 744 11-May-2017 17:32:07 -4.523712e+02 3.547495e+01 0 1
83GP29_F19 3 77 14 45 -45 right 1 5.000000e-01 /Users/lab/Documents/magic3Definitivo/stim/2_noeffect.mov 576 11-May-2017 17:32:10 -2.139399e+02 8.387636e+01 0 0
83GP29_F19 3 78 61 45 45 right 1 5.000000e-01 /Users/lab/Documents/magic3Definitivo/stim/8_noeffect.mov 738 11-May-2017 17:32:13 4.018846e+02 -4.402445e+02 0 0
83GP29_F19 3 79 36 -45 -45 left 1 5.000000e-01 /Users/lab/Documents/magic3Definitivo/stim/5_effect.mov 627 11-May-2017 17:32:16 -1.319899e+02 3.708159e+02 1 0
83GP29_F19 3 80 53 45 45 right 1 5.000000e-01 /Users/lab/Documents/magic3Definitivo/stim/7_noeffect.mov 561 11-May-2017 17:32:18 -2.671566e+02 4.638148e+02 0 0
