subject_name subjectNumber iTrial unshuffled_trial targetOrientation flankersOrientation response correct onscreen_stim_duration magicShows rt date time_of_day deltaX deltaY surpriseClip isClipTrial
14GN17_F19 4 1 4 -45 -45 left 1 5.000000e-01 /Users/lab/Documents/magic3Definitivo/stim/1_effect.mov 677 03-May-2017 12:45:03 -3.166721e+02 -2.705157e+02 1 1
14GN17_F19 4 2 6 45 -45 right 1 5.000000e-01 /Users/lab/Documents/magic3Definitivo/stim/1_noeffect.mov 576 03-May-2017 12:45:05 -3.568383e+02 -1.476274e+02 1 0
14GN17_F19 4 3 70 45 -45 right 1 5.000000e-01 /Users/lab/Documents/magic3Definitivo/stim/9_noeffect.mov 624 03-May-2017 12:45:08 -3.213514e+02 -4.851976e+02 0 0
14GN17_F19 4 4 69 45 45 right 1 5.000000e-01 /Users/lab/Documents/magic3Definitivo/stim/9_noeffect.mov 779 03-May-2017 12:45:30 1.950663e+02 -1.279175e+02 0 1
14GN17_F19 4 5 48 -45 -45 left 1 5.000000e-01 /Users/lab/Documents/magic3Definitivo/stim/6_noeffect.mov 412 03-May-2017 12:45:33 -7.678138e+01 -1.299669e+02 0 0
14GN17_F19 4 6 41 45 45 right 1 5.000000e-01 /Users/lab/Documents/magic3Definitivo/stim/6_effect.mov 579 03-May-2017 12:45:36 -1.103387e+02 1.783470e+02 1 0
14GN17_F19 4 7 52 -45 -45 right 0 5.000000e-01 /Users/lab/Documents/magic3Definitivo/stim/7_effect.mov 745 03-May-2017 12:45:39 1.678930e+02 4.565282e+02 1 0
14GN17_F19 4 8 77 45 45 left 0 5.000000e-01 /Users/lab/Documents/magic3Definitivo/stim/10_noeffect.mov 1461 03-May-2017 12:45:54 4.822589e+02 -3.258211e+02 0 1
14GN17_F19 4 9 50 45 -45 right 1 5.000000e-01 /Users/lab/Documents/magic3Definitivo/stim/7_effect.mov 593 03-May-2017 12:45:57 -3.476402e+02 -4.320345e+02 1 0
14GN17_F19 4 10 11 -45 45 left 1 5.000000e-01 /Users/lab/Documents/magic3Definitivo/stim/2_effect.mov 677 03-May-2017 12:46:00 -4.265494e+02 4.903332e+02 1 0
14GN17_F19 4 11 76 -45 -45 left 1 5.000000e-01 /Users/lab/Documents/magic3Definitivo/stim/10_effect.mov 680 03-May-2017 12:46:03 2.087898e+02 1.824488e+02 1 0
14GN17_F19 4 12 46 45 -45 right 1 5.000000e-01 /Users/lab/Documents/magic3Definitivo/stim/6_noeffect.mov 761 03-May-2017 12:46:18 -4.162755e+02 4.668553e+02 0 1
14GN17_F19 4 13 65 45 45 right 1 5.000000e-01 /Users/lab/Documents/magic3Definitivo/stim/9_effect.mov 945 03-May-2017 12:46:21 -3.281114e+02 3.109778e+02 1 0
14GN17_F19 4 14 79 -45 45 left 1 5.000000e-01 /Users/lab/Documents/magic3Definitivo/stim/10_noeffect.mov 629 03-May-2017 12:46:24 4.459891e+02 -4.306258e+02 0 0
14GN17_F19 4 15 16 -45 -45 left 1 5.000000e-01 /Users/lab/Documents/magic3Definitivo/stim/2_noeffect.mov 538 03-May-2017 12:46:27 1.197937e+02 2.661444e+02 0 0
14GN17_F19 4 16 3 -45 45 left 1 5.000000e-01 /Users/lab/Documents/magic3Definitivo/stim/1_effect.mov 694 03-May-2017 12:46:52 3.751980e+02 -1.828089e+02 1 1
14GN17_F19 4 17 20 -45 -45 left 1 5.000000e-01 /Users/lab/Documents/magic3Definitivo/stim/3_effect.mov 593 03-May-2017 12:46:55 3.069715e+02 2.678408e+02 1 0
14GN17_F19 4 18 47 -45 45 left 1 5.000000e-01 /Users/lab/Documents/magic3Definitivo/stim/6_noeffect.mov 795 03-May-2017 12:46:58 1.824612e+02 -2.465934e+00 0 0
14GN17_F19 4 19 17 45 45 right 1 5.000000e-01 /Users/lab/Documents/magic3Definitivo/stim/3_effect.mov 872 03-May-2017 12:47:01 3.638469e+02 -1.217999e+02 1 0
14GN17_F19 4 20 13 45 45 right 1 5.000000e-01 /Users/lab/Documents/magic3Definitivo/stim/2_noeffect.mov 744 03-May-2017 12:47:26 1.290991e+02 4.664064e+02 0 1
14GN17_F19 4 21 10 45 -45 left 0 5.000000e-01 /Users/lab/Documents/magic3Definitivo/stim/2_effect.mov 397 03-May-2017 12:47:29 -3.817083e+02 -2.534009e+02 1 0
14GN17_F19 4 22 37 45 45 right 1 5.000000e-01 /Users/lab/Documents/magic3Definitivo/stim/5_noeffect.mov 695 03-May-2017 12:47:32 1.779519e+02 -7.524625e+00 0 0
14GN17_F19 4 23 43 -45 45 left 1 5.000000e-01 /Users/lab/Documents/magic3Definitivo/stim/6_effect.mov 744 03-May-2017 12:47:35 2.210179e+02 4.018641e+02 1 0
14GN17_F19 4 24 5 45 45 right 1 5.000000e-01 /Users/lab/Documents/magic3Definitivo/stim/1_noeffect.mov 709 03-May-2017 12:48:00 -2.722599e+02 -6.336596e+01 1 1
14GN17_F19 4 25 9 45 45 right 1 5.000000e-01 /Users/lab/Documents/magic3Definitivo/stim/2_effect.mov 627 03-May-2017 12:48:03 -4.087696e+02 -3.517220e+02 1 0
14GN17_F19 4 26 18 45 -45 right 1 5.000000e-01 /Users/lab/Documents/magic3Definitivo/stim/3_effect.mov 711 03-May-2017 12:48:06 -3.938090e+02 -2.082582e+02 1 0
14GN17_F19 4 27 36 -45 45 left 1 5.000000e-01 /Users/lab/Documents/magic3Definitivo/stim/5_effect.mov 595 03-May-2017 12:48:09 -2.051857e+02 -1.607430e+02 1 0
14GN17_F19 4 28 59 -45 45 left 1 5.000000e-01 /Users/lab/Documents/magic3Definitivo/stim/8_effect.mov 625 03-May-2017 12:48:30 7.220324e+01 -5.185605e+01 1 1
14GN17_F19 4 29 78 45 -45 right 1 5.000000e-01 /Users/lab/Documents/magic3Definitivo/stim/10_noeffect.mov 644 03-May-2017 12:48:33 6.238582e+01 1.871543e+02 0 0
14GN17_F19 4 30 21 45 45 right 1 5.000000e-01 /Users/lab/Documents/magic3Definitivo/stim/3_noeffect.mov 562 03-May-2017 12:48:36 6.214012e+01 -1.118862e+02 0 0
14GN17_F19 4 31 74 45 -45 right 1 5.000000e-01 /Users/lab/Documents/magic3Definitivo/stim/10_effect.mov 645 03-May-2017 12:48:39 -2.042114e+02 -2.474290e+02 1 0
14GN17_F19 4 32 67 -45 45 left 1 5.000000e-01 /Users/lab/Documents/magic3Definitivo/stim/9_effect.mov 760 03-May-2017 12:49:01 2.488682e+02 9.852978e+00 1 1
14GN17_F19 4 33 30 45 -45 right 1 5.000000e-01 /Users/lab/Documents/magic3Definitivo/stim/4_noeffect.mov 612 03-May-2017 12:49:04 -3.496094e+02 4.895633e+02 0 0
14GN17_F19 4 34 1 45 45 right 1 5.000000e-01 /Users/lab/Documents/magic3Definitivo/stim/1_effect.mov 678 03-May-2017 12:49:07 3.140934e+02 -3.992535e+01 1 0
14GN17_F19 4 35 39 -45 45 left 1 5.000000e-01 /Users/lab/Documents/magic3Definitivo/stim/5_noeffect.mov 628 03-May-2017 12:49:10 2.388073e+02 -2.559810e+02 0 0
14GN17_F19 4 36 38 45 -45 right 1 5.000000e-01 /Users/lab/Documents/magic3Definitivo/stim/5_noeffect.mov 861 03-May-2017 12:49:27 -2.345003e+02 4.852182e+02 0 1
14GN17_F19 4 37 33 45 45 right 1 5.000000e-01 /Users/lab/Documents/magic3Definitivo/stim/5_effect.mov 844 03-May-2017 12:49:30 3.203116e+02 -3.472081e+02 1 0
14GN17_F19 4 38 40 -45 -45 left 1 5.000000e-01 /Users/lab/Documents/magic3Definitivo/stim/5_noeffect.mov 473 03-May-2017 12:49:33 -7.208391e+01 -1.018643e+02 0 0
14GN17_F19 4 39 2 45 -45 right 1 5.000000e-01 /Users/lab/Documents/magic3Definitivo/stim/1_effect.mov 646 03-May-2017 12:49:36 -4.395818e+02 3.837749e+01 1 0
14GN17_F19 4 40 25 45 45 right 1 5.000000e-01 /Users/lab/Documents/magic3Definitivo/stim/4_effect.mov 777 03-May-2017 12:49:53 3.140245e+02 4.214609e+02 1 1
14GN17_F19 4 41 23 -45 45 left 1 5.000000e-01 /Users/lab/Documents/magic3Definitivo/stim/3_noeffect.mov 694 03-May-2017 12:49:56 -2.077052e+02 1.878498e+02 0 0
14GN17_F19 4 42 12 -45 -45 left 1 5.000000e-01 /Users/lab/Documents/magic3Definitivo/stim/2_effect.mov 494 03-May-2017 12:49:59 -3.277549e+02 4.683069e+02 1 0
14GN17_F19 4 43 51 -45 45 left 1 5.000000e-01 /Users/lab/Documents/magic3Definitivo/stim/7_effect.mov 712 03-May-2017 12:50:02 2.936191e+02 -5.153964e+01 1 0
14GN17_F19 4 44 56 -45 -45 left 1 5.000000e-01 /Users/lab/Documents/magic3Definitivo/stim/7_noeffect.mov 792 03-May-2017 12:50:21 1.182166e+02 -3.049066e+02 0 1
14GN17_F19 4 45 45 45 45 right 1 5.000000e-01 /Users/lab/Documents/magic3Definitivo/stim/6_noeffect.mov 1028 03-May-2017 12:50:24 1.469152e+02 1.010898e+02 0 0
14GN17_F19 4 46 14 45 -45 right 1 5.000000e-01 /Users/lab/Documents/magic3Definitivo/stim/2_noeffect.mov 1028 03-May-2017 12:50:28 -3.757664e+02 4.483022e+01 0 0
14GN17_F19 4 47 61 45 45 right 1 5.000000e-01 /Users/lab/Documents/magic3Definitivo/stim/8_noeffect.mov 645 03-May-2017 12:50:31 9.770241e+01 6.846184e+01 0 0
14GN17_F19 4 48 42 45 -45 right 1 5.000000e-01 /Users/lab/Documents/magic3Definitivo/stim/6_effect.mov 844 03-May-2017 12:50:46 2.919272e+02 4.847522e+02 1 1
14GN17_F19 4 49 72 -45 -45 left 1 5.000000e-01 /Users/lab/Documents/magic3Definitivo/stim/9_noeffect.mov 490 03-May-2017 12:50:49 3.114398e+02 3.319479e+02 0 0
14GN17_F19 4 50 73 45 45 right 1 5.000000e-01 /Users/lab/Documents/magic3Definitivo/stim/10_effect.mov 560 03-May-2017 12:50:52 -1.947868e+02 1.953763e+02 1 0
14GN17_F19 4 51 31 -45 45 left 1 5.000000e-01 /Users/lab/Documents/magic3Definitivo/stim/4_noeffect.mov 479 03-May-2017 12:50:55 -1.111143e+02 -1.912987e+02 0 0
14GN17_F19 4 52 55 -45 45 left 1 5.000000e-01 /Users/lab/Documents/magic3Definitivo/stim/7_noeffect.mov 643 03-May-2017 12:51:14 2.852915e+02 4.841461e+02 0 1
14GN17_F19 4 53 68 -45 -45 left 1 5.000000e-01 /Users/lab/Documents/magic3Definitivo/stim/9_effect.mov 539 03-May-2017 12:51:17 -4.271125e+02 -4.809952e+02 1 0
14GN17_F19 4 54 27 -45 45 left 1 5.000000e-01 /Users/lab/Documents/magic3Definitivo/stim/4_effect.mov 612 03-May-2017 12:51:20 -4.317377e+02 1.807886e+02 1 0
14GN17_F19 4 55 60 -45 -45 left 1 5.000000e-01 /Users/lab/Documents/magic3Definitivo/stim/8_effect.mov 511 03-May-2017 12:51:22 -4.425892e+02 2.239282e+02 1 0
14GN17_F19 4 56 62 45 -45 right 1 5.000000e-01 /Users/lab/Documents/magic3Definitivo/stim/8_noeffect.mov 726 03-May-2017 12:51:43 2.602843e+02 2.822819e+02 0 1
14GN17_F19 4 57 15 -45 45 left 1 5.000000e-01 /Users/lab/Documents/magic3Definitivo/stim/2_noeffect.mov 795 03-May-2017 12:51:47 -4.995598e+02 -1.090279e+02 0 0
14GN17_F19 4 58 44 -45 -45 left 1 5.000000e-01 /Users/lab/Documents/magic3Definitivo/stim/6_effect.mov 485 03-May-2017 12:51:49 -2.019685e+02 3.495489e+02 1 0
14GN17_F19 4 59 53 45 45 right 1 5.000000e-01 /Users/lab/Documents/magic3Definitivo/stim/7_noeffect.mov 594 03-May-2017 12:51:52 -8.867320e+00 2.138852e+02 0 0
14GN17_F19 4 60 22 45 -45 right 1 5.000000e-01 /Users/lab/Documents/magic3Definitivo/stim/3_noeffect.mov 678 03-May-2017 12:52:11 2.809678e+02 4.514253e+02 0 1
14GN17_F19 4 61 57 45 45 right 1 5.000000e-01 /Users/lab/Documents/magic3Definitivo/stim/8_effect.mov 611 03-May-2017 12:52:14 -2.467635e+02 2.044699e+02 1 0
14GN17_F19 4 62 66 45 -45 right 1 5.000000e-01 /Users/lab/Documents/magic3Definitivo/stim/9_effect.mov 677 03-May-2017 12:52:17 2.603334e+02 2.547031e+02 1 0
14GN17_F19 4 63 34 45 -45 right 1 5.000000e-01 /Users/lab/Documents/magic3Definitivo/stim/5_effect.mov 678 03-May-2017 12:52:20 -4.907968e+02 -4.034717e+02 1 0
14GN17_F19 4 64 63 -45 45 left 1 5.000000e-01 /Users/lab/Documents/magic3Definitivo/stim/8_noeffect.mov 642 03-May-2017 12:52:41 1.675667e+02 -2.467034e+02 0 1
14GN17_F19 4 65 54 45 -45 right 1 5.000000e-01 /Users/lab/Documents/magic3Definitivo/stim/7_noeffect.mov 595 03-May-2017 12:52:44 -4.924648e+02 -1.881188e+02 0 0
14GN17_F19 4 66 36 -45 -45 left 1 5.000000e-01 /Users/lab/Documents/magic3Definitivo/stim/5_effect.mov 461 03-May-2017 12:52:46 -4.809832e+02 3.195033e+02 1 0
14GN17_F19 4 67 58 45 -45 right 1 5.000000e-01 /Users/lab/Documents/magic3Definitivo/stim/8_effect.mov 578 03-May-2017 12:52:49 -1.176275e+02 3.100611e+02 1 0
14GN17_F19 4 68 19 -45 45 left 1 5.000000e-01 /Users/lab/Documents/magic3Definitivo/stim/3_effect.mov 1077 03-May-2017 12:53:08 -4.200431e+02 2.197096e+02 1 1
14GN17_F19 4 69 24 -45 -45 left 1 5.000000e-01 /Users/lab/Documents/magic3Definitivo/stim/3_noeffect.mov 579 03-May-2017 12:53:11 -2.691527e+02 -1.187101e+02 0 0
14GN17_F19 4 70 80 -45 -45 left 1 5.000000e-01 /Users/lab/Documents/magic3Definitivo/stim/10_noeffect.mov 644 03-May-2017 12:53:14 -3.157005e+02 -1.691811e+02 0 0
14GN17_F19 4 71 29 45 45 right 1 5.000000e-01 /Users/lab/Documents/magic3Definitivo/stim/4_noeffect.mov 706 03-May-2017 12:53:17 3.403656e+02 9.067540e+00 0 0
14GN17_F19 4 72 64 -45 -45 left 1 5.000000e-01 /Users/lab/Documents/magic3Definitivo/stim/8_noeffect.mov 693 03-May-2017 12:53:38 -3.221237e+02 3.456056e+02 0 1
14GN17_F19 4 73 49 45 45 right 1 5.000000e-01 /Users/lab/Documents/magic3Definitivo/stim/7_effect.mov 678 03-May-2017 12:53:41 -1.136087e+02 -1.737491e+02 1 0
14GN17_F19 4 74 7 -45 45 left 1 5.000000e-01 /Users/lab/Documents/magic3Definitivo/stim/1_noeffect.mov 679 03-May-2017 12:53:44 -2.510997e+02 3.849160e+02 1 0
14GN17_F19 4 75 8 -45 -45 left 1 5.000000e-01 /Users/lab/Documents/magic3Definitivo/stim/1_noeffect.mov 594 03-May-2017 12:53:47 -3.194971e+02 4.893778e+02 1 0
14GN17_F19 4 76 32 -45 -45 left 1 5.000000e-01 /Users/lab/Documents/magic3Definitivo/stim/4_noeffect.mov 743 03-May-2017 12:54:04 -2.556794e+02 -1.238709e+02 0 1
14GN17_F19 4 77 28 -45 -45 left 1 5.000000e-01 /Users/lab/Documents/magic3Definitivo/stim/4_effect.mov 811 03-May-2017 12:54:07 4.814586e+02 3.178996e+02 1 0
14GN17_F19 4 78 75 -45 45 left 1 5.000000e-01 /Users/lab/Documents/magic3Definitivo/stim/10_effect.mov 630 03-May-2017 12:54:10 4.656738e+02 2.270281e+02 1 0
14GN17_F19 4 79 71 -45 45 left 1 5.000000e-01 /Users/lab/Documents/magic3Definitivo/stim/9_noeffect.mov 562 03-May-2017 12:54:13 -3.820199e+02 -2.187796e+02 0 0
14GN17_F19 4 80 26 45 -45 right 1 5.000000e-01 /Users/lab/Documents/magic3Definitivo/stim/4_effect.mov 596 03-May-2017 12:54:16 -1.411356e+02 -3.449148e+02 1 0
