subject_name subjectNumber iTrial unshuffled_trial targetOrientation flankersOrientation response correct onscreen_stim_duration magicShows rt date time_of_day deltaX deltaY surpriseClip isClipTrial
78ST25_F19 3 1 24 -45 -45 left 1 5.000000e-01 /Users/lab/Documents/magic3Definitivo/stim/3_noeffect.mov 946 26-Apr-2017 14:12:25 -3.130182e+02 3.606887e+01 0 1
78ST25_F19 3 2 7 -45 45 left 1 5.000000e-01 /Users/lab/Documents/magic3Definitivo/stim/1_noeffect.mov 745 26-Apr-2017 14:12:28 -4.655115e+02 -4.062147e+02 1 0
78ST25_F19 3 3 36 -45 45 left 1 5.000000e-01 /Users/lab/Documents/magic3Definitivo/stim/5_effect.mov 846 26-Apr-2017 14:12:31 -7.693135e+01 1.835987e+01 1 0
78ST25_F19 3 4 52 -45 -45 left 1 5.000000e-01 /Users/lab/Documents/magic3Definitivo/stim/7_effect.mov 1061 26-Apr-2017 14:12:50 2.526223e+00 2.520077e+02 1 1
78ST25_F19 3 5 78 45 -45 right 1 5.000000e-01 /Users/lab/Documents/magic3Definitivo/stim/10_noeffect.mov 1039 26-Apr-2017 14:12:54 -3.619559e+02 4.277258e+01 0 0
78ST25_F19 3 6 38 45 -45 right 1 5.000000e-01 /Users/lab/Documents/magic3Definitivo/stim/5_noeffect.mov 761 26-Apr-2017 14:12:57 -2.330512e+02 3.428269e+02 0 0
78ST25_F19 3 7 56 -45 -45 left 1 5.000000e-01 /Users/lab/Documents/magic3Definitivo/stim/7_noeffect.mov 894 26-Apr-2017 14:13:00 -1.243923e+02 3.734074e+02 0 0
78ST25_F19 3 8 70 45 -45 right 1 5.000000e-01 /Users/lab/Documents/magic3Definitivo/stim/9_noeffect.mov 1048 26-Apr-2017 14:13:22 2.147157e+02 -8.649396e+00 0 1
78ST25_F19 3 9 42 45 -45 right 1 5.000000e-01 /Users/lab/Documents/magic3Definitivo/stim/6_effect.mov 994 26-Apr-2017 14:13:26 -2.629621e+02 1.912544e+02 1 0
78ST25_F19 3 10 1 45 45 right 1 5.000000e-01 /Users/lab/Documents/magic3Definitivo/stim/1_effect.mov 1060 26-Apr-2017 14:13:29 -4.835080e+02 4.648900e+02 1 0
78ST25_F19 3 11 73 45 45 right 1 5.000000e-01 /Users/lab/Documents/magic3Definitivo/stim/10_effect.mov 793 26-Apr-2017 14:13:32 1.246653e+02 -6.233714e+01 1 0
78ST25_F19 3 12 71 -45 45 left 1 5.000000e-01 /Users/lab/Documents/magic3Definitivo/stim/9_noeffect.mov 878 26-Apr-2017 14:13:54 -8.926355e+01 7.632583e+01 0 1
78ST25_F19 3 13 48 -45 -45 left 1 5.000000e-01 /Users/lab/Documents/magic3Definitivo/stim/6_noeffect.mov 806 26-Apr-2017 14:13:57 -1.007275e+02 -4.134689e+02 0 0
78ST25_F19 3 14 13 45 45 right 1 5.000000e-01 /Users/lab/Documents/magic3Definitivo/stim/2_noeffect.mov 705 26-Apr-2017 14:14:00 -4.517071e+02 -6.187673e+01 0 0
78ST25_F19 3 15 20 -45 -45 left 1 5.000000e-01 /Users/lab/Documents/magic3Definitivo/stim/3_effect.mov 722 26-Apr-2017 14:14:03 -1.753381e+02 3.303396e+02 1 0
78ST25_F19 3 16 21 45 45 right 1 5.000000e-01 /Users/lab/Documents/magic3Definitivo/stim/3_noeffect.mov 1077 26-Apr-2017 14:14:22 3.840638e+02 -6.426338e+01 0 1
78ST25_F19 3 17 46 45 -45 right 1 5.000000e-01 /Users/lab/Documents/magic3Definitivo/stim/6_noeffect.mov 677 26-Apr-2017 14:14:25 3.858367e+01 -2.331157e+02 0 0
78ST25_F19 3 18 22 45 -45 right 1 5.000000e-01 /Users/lab/Documents/magic3Definitivo/stim/3_noeffect.mov 693 26-Apr-2017 14:14:28 2.167903e+01 3.425584e+02 0 0
78ST25_F19 3 19 34 45 -45 right 1 5.000000e-01 /Users/lab/Documents/magic3Definitivo/stim/5_effect.mov 894 26-Apr-2017 14:14:31 4.139350e+02 2.160948e+02 1 0
78ST25_F19 3 20 32 -45 -45 left 1 5.000000e-01 /Users/lab/Documents/magic3Definitivo/stim/4_noeffect.mov 876 26-Apr-2017 14:14:48 -7.695098e+01 4.739046e+02 0 1
78ST25_F19 3 21 50 45 -45 right 1 5.000000e-01 /Users/lab/Documents/magic3Definitivo/stim/7_effect.mov 777 26-Apr-2017 14:14:52 -4.372981e+01 -1.789357e+02 1 0
78ST25_F19 3 22 63 -45 45 left 1 5.000000e-01 /Users/lab/Documents/magic3Definitivo/stim/8_noeffect.mov 944 26-Apr-2017 14:14:55 1.981630e+02 -3.822014e+02 0 0
78ST25_F19 3 23 55 -45 45 left 1 5.000000e-01 /Users/lab/Documents/magic3Definitivo/stim/7_noeffect.mov 792 26-Apr-2017 14:14:58 2.445488e+02 -6.940261e+01 0 0
78ST25_F19 3 24 36 -45 -45 left 1 5.000000e-01 /Users/lab/Documents/magic3Definitivo/stim/5_effect.mov 861 26-Apr-2017 14:15:15 -3.213458e+02 -4.212763e+02 1 1
78ST25_F19 3 25 29 45 45 right 1 5.000000e-01 /Users/lab/Documents/magic3Definitivo/stim/4_noeffect.mov 808 26-Apr-2017 14:15:18 1.778829e+02 -5.731175e+01 0 0
78ST25_F19 3 26 60 -45 -45 left 1 5.000000e-01 /Users/lab/Documents/magic3Definitivo/stim/8_effect.mov 705 26-Apr-2017 14:15:21 1.822812e+02 -1.819074e+02 1 0
78ST25_F19 3 27 44 -45 -45 left 1 5.000000e-01 /Users/lab/Documents/magic3Definitivo/stim/6_effect.mov 806 26-Apr-2017 14:15:24 -2.230656e+02 -1.766627e+02 1 0
78ST25_F19 3 28 31 -45 45 left 1 5.000000e-01 /Users/lab/Documents/magic3Definitivo/stim/4_noeffect.mov 827 26-Apr-2017 14:15:42 -3.071576e+02 9.333873e+01 0 1
78ST25_F19 3 29 62 45 -45 right 1 5.000000e-01 /Users/lab/Documents/magic3Definitivo/stim/8_noeffect.mov 828 26-Apr-2017 14:15:45 4.280231e+02 3.686872e+02 0 0
78ST25_F19 3 30 68 -45 -45 left 1 5.000000e-01 /Users/lab/Documents/magic3Definitivo/stim/9_effect.mov 860 26-Apr-2017 14:15:48 4.311714e+02 -2.099531e+02 1 0
78ST25_F19 3 31 64 -45 -45 left 1 5.000000e-01 /Users/lab/Documents/magic3Definitivo/stim/8_noeffect.mov 913 26-Apr-2017 14:15:51 -4.611948e+02 -5.135886e+01 0 0
78ST25_F19 3 32 54 45 -45 right 1 5.000000e-01 /Users/lab/Documents/magic3Definitivo/stim/7_noeffect.mov 875 26-Apr-2017 14:16:10 1.383745e+02 8.531459e+01 0 1
78ST25_F19 3 33 40 -45 -45 left 1 5.000000e-01 /Users/lab/Documents/magic3Definitivo/stim/5_noeffect.mov 693 26-Apr-2017 14:16:13 2.407569e+02 2.358710e+02 0 0
78ST25_F19 3 34 75 -45 45 left 1 5.000000e-01 /Users/lab/Documents/magic3Definitivo/stim/10_effect.mov 727 26-Apr-2017 14:16:16 -2.135019e+02 -2.205960e+02 1 0
78ST25_F19 3 35 74 45 -45 right 1 5.000000e-01 /Users/lab/Documents/magic3Definitivo/stim/10_effect.mov 892 26-Apr-2017 14:16:20 1.647336e+02 8.350807e+01 1 0
78ST25_F19 3 36 61 45 45 right 1 5.000000e-01 /Users/lab/Documents/magic3Definitivo/stim/8_noeffect.mov 928 26-Apr-2017 14:16:41 4.511440e+02 4.461796e+02 0 1
78ST25_F19 3 37 49 45 45 right 1 5.000000e-01 /Users/lab/Documents/magic3Definitivo/stim/7_effect.mov 874 26-Apr-2017 14:16:44 4.885543e+02 -3.596733e+02 1 0
78ST25_F19 3 38 25 45 45 right 1 5.000000e-01 /Users/lab/Documents/magic3Definitivo/stim/4_effect.mov 773 26-Apr-2017 14:16:47 1.384732e+02 -3.771077e+02 1 0
78ST25_F19 3 39 5 45 45 right 1 5.000000e-01 /Users/lab/Documents/magic3Definitivo/stim/1_noeffect.mov 679 26-Apr-2017 14:16:50 -2.042515e+02 -1.033770e+02 1 0
78ST25_F19 3 40 19 -45 45 left 1 5.000000e-01 /Users/lab/Documents/magic3Definitivo/stim/3_effect.mov 944 26-Apr-2017 14:17:09 2.780825e+02 2.379752e+02 1 1
78ST25_F19 3 41 4 -45 -45 left 1 5.000000e-01 /Users/lab/Documents/magic3Definitivo/stim/1_effect.mov 996 26-Apr-2017 14:17:12 -1.158100e+02 1.032536e+02 1 0
78ST25_F19 3 42 15 -45 45 left 1 5.000000e-01 /Users/lab/Documents/magic3Definitivo/stim/2_noeffect.mov 761 26-Apr-2017 14:17:15 -4.025642e+02 1.782006e+02 0 0
78ST25_F19 3 43 39 -45 45 left 1 5.000000e-01 /Users/lab/Documents/magic3Definitivo/stim/5_noeffect.mov 761 26-Apr-2017 14:17:18 -4.354098e+02 -2.371451e+02 0 0
78ST25_F19 3 44 26 45 -45 right 1 5.000000e-01 /Users/lab/Documents/magic3Definitivo/stim/4_effect.mov 1794 26-Apr-2017 14:17:36 -3.594075e+02 -4.716340e+02 1 1
78ST25_F19 3 45 37 45 45 right 1 5.000000e-01 /Users/lab/Documents/magic3Definitivo/stim/5_noeffect.mov 1192 26-Apr-2017 14:17:40 4.689115e+02 4.621945e+02 0 0
78ST25_F19 3 46 58 45 -45 right 1 5.000000e-01 /Users/lab/Documents/magic3Definitivo/stim/8_effect.mov 742 26-Apr-2017 14:17:43 -1.854022e+02 -2.493374e+02 1 0
78ST25_F19 3 47 72 -45 -45 right 0 5.000000e-01 /Users/lab/Documents/magic3Definitivo/stim/9_noeffect.mov 607 26-Apr-2017 14:17:46 2.695078e+02 -7.538697e+01 0 0
78ST25_F19 3 48 80 -45 -45 left 1 5.000000e-01 /Users/lab/Documents/magic3Definitivo/stim/10_noeffect.mov 943 26-Apr-2017 14:18:00 2.081324e+01 -4.760909e+02 0 1
78ST25_F19 3 49 12 -45 -45 left 1 5.000000e-01 /Users/lab/Documents/magic3Definitivo/stim/2_effect.mov 773 26-Apr-2017 14:18:03 -3.908813e+02 -3.607103e+01 1 0
78ST25_F19 3 50 8 -45 -45 left 1 5.000000e-01 /Users/lab/Documents/magic3Definitivo/stim/1_noeffect.mov 739 26-Apr-2017 14:18:06 6.429572e+01 -2.009362e+02 1 0
78ST25_F19 3 51 18 45 -45 right 1 5.000000e-01 /Users/lab/Documents/magic3Definitivo/stim/3_effect.mov 1022 26-Apr-2017 14:18:10 3.496461e+02 2.032441e+02 1 0
78ST25_F19 3 52 43 -45 45 left 1 5.000000e-01 /Users/lab/Documents/magic3Definitivo/stim/6_effect.mov 993 26-Apr-2017 14:18:25 -6.159401e+01 2.766640e+02 1 1
78ST25_F19 3 53 59 -45 45 left 1 5.000000e-01 /Users/lab/Documents/magic3Definitivo/stim/8_effect.mov 812 26-Apr-2017 14:18:28 -1.214287e+02 -1.592656e+02 1 0
78ST25_F19 3 54 51 -45 45 left 1 5.000000e-01 /Users/lab/Documents/magic3Definitivo/stim/7_effect.mov 976 26-Apr-2017 14:18:32 3.920942e+02 4.160854e+02 1 0
78ST25_F19 3 55 23 -45 45 left 1 5.000000e-01 /Users/lab/Documents/magic3Definitivo/stim/3_noeffect.mov 661 26-Apr-2017 14:18:35 -2.161945e+01 -2.213198e+02 0 0
78ST25_F19 3 56 30 45 -45 right 1 5.000000e-01 /Users/lab/Documents/magic3Definitivo/stim/4_noeffect.mov 810 26-Apr-2017 14:18:52 1.010005e+02 -1.780026e+02 0 1
78ST25_F19 3 57 67 -45 45 left 1 5.000000e-01 /Users/lab/Documents/magic3Definitivo/stim/9_effect.mov 593 26-Apr-2017 14:18:55 -1.028752e+02 1.348861e+02 1 0
78ST25_F19 3 58 6 45 -45 right 1 5.000000e-01 /Users/lab/Documents/magic3Definitivo/stim/1_noeffect.mov 642 26-Apr-2017 14:18:58 -1.656087e+02 4.081390e+02 1 0
78ST25_F19 3 59 11 -45 45 left 1 5.000000e-01 /Users/lab/Documents/magic3Definitivo/stim/2_effect.mov 609 26-Apr-2017 14:19:01 3.578349e+02 -4.528186e+02 1 0
78ST25_F19 3 60 41 45 45 right 1 5.000000e-01 /Users/lab/Documents/magic3Definitivo/stim/6_effect.mov 1093 26-Apr-2017 14:19:16 3.554068e+02 -4.837127e+02 1 1
78ST25_F19 3 61 69 45 45 right 1 5.000000e-01 /Users/lab/Documents/magic3Definitivo/stim/9_noeffect.mov 722 26-Apr-2017 14:19:19 2.060890e+02 -3.521097e+01 0 0
78ST25_F19 3 62 28 -45 -45 left 1 5.000000e-01 /Users/lab/Documents/magic3Definitivo/stim/4_effect.mov 756 26-Apr-2017 14:19:22 3.730941e+02 -3.003147e+02 1 0
78ST25_F19 3 63 79 -45 45 left 1 5.000000e-01 /Users/lab/Documents/magic3Definitivo/stim/10_noeffect.mov 804 26-Apr-2017 14:19:25 1.938319e+02 -2.630302e+02 0 0
78ST25_F19 3 64 45 45 45 right 1 5.000000e-01 /Users/lab/Documents/magic3Definitivo/stim/6_noeffect.mov 894 26-Apr-2017 14:19:40 2.946686e+02 -1.180709e+02 0 1
78ST25_F19 3 65 2 45 -45 right 1 5.000000e-01 /Users/lab/Documents/magic3Definitivo/stim/1_effect.mov 761 26-Apr-2017 14:19:43 3.046204e+02 1.391157e+02 1 0
78ST25_F19 3 66 3 -45 45 left 1 5.000000e-01 /Users/lab/Documents/magic3Definitivo/stim/1_effect.mov 794 26-Apr-2017 14:19:47 4.137020e+02 3.534209e+02 1 0
78ST25_F19 3 67 57 45 45 right 1 5.000000e-01 /Users/lab/Documents/magic3Definitivo/stim/8_effect.mov 727 26-Apr-2017 14:19:50 -1.185517e+01 2.344646e+02 1 0
78ST25_F19 3 68 16 -45 -45 left 1 5.000000e-01 /Users/lab/Documents/magic3Definitivo/stim/2_noeffect.mov 893 26-Apr-2017 14:20:15 -1.612051e+02 1.986030e+02 0 1
78ST25_F19 3 69 66 45 -45 right 1 5.000000e-01 /Users/lab/Documents/magic3Definitivo/stim/9_effect.mov 658 26-Apr-2017 14:20:18 6.411108e+01 -1.676076e+02 1 0
78ST25_F19 3 70 77 45 45 right 1 5.000000e-01 /Users/lab/Documents/magic3Definitivo/stim/10_noeffect.mov 708 26-Apr-2017 14:20:21 3.258880e+02 3.215726e+02 0 0
78ST25_F19 3 71 76 -45 -45 left 1 5.000000e-01 /Users/lab/Documents/magic3Definitivo/stim/10_effect.mov 758 26-Apr-2017 14:20:24 -4.741420e+02 -1.342115e+02 1 0
78ST25_F19 3 72 53 45 45 right 1 5.000000e-01 /Users/lab/Documents/magic3Definitivo/stim/7_noeffect.mov 809 26-Apr-2017 14:20:43 3.672933e+02 3.238462e+02 0 1
78ST25_F19 3 73 47 -45 45 left 1 5.000000e-01 /Users/lab/Documents/magic3Definitivo/stim/6_noeffect.mov 663 26-Apr-2017 14:20:46 -2.265275e+02 1.002948e+02 0 0
78ST25_F19 3 74 65 45 45 right 1 5.000000e-01 /Users/lab/Documents/magic3Definitivo/stim/9_effect.mov 906 26-Apr-2017 14:20:49 -3.060972e+02 4.078844e+02 1 0
78ST25_F19 3 75 10 45 -45 right 1 5.000000e-01 /Users/lab/Documents/magic3Definitivo/stim/2_effect.mov 654 26-Apr-2017 14:20:52 -3.594240e+02 -1.448461e+02 1 0
78ST25_F19 3 76 33 45 45 right 1 5.000000e-01 /Users/lab/Documents/magic3Definitivo/stim/5_effect.mov 811 26-Apr-2017 14:21:09 -4.156630e+00 2.242216e+02 1 1
78ST25_F19 3 77 27 -45 45 left 1 5.000000e-01 /Users/lab/Documents/magic3Definitivo/stim/4_effect.mov 994 26-Apr-2017 14:21:12 4.612597e+02 2.808402e+02 1 0
78ST25_F19 3 78 9 45 45 right 1 5.000000e-01 /Users/lab/Documents/magic3Definitivo/stim/2_effect.mov 846 26-Apr-2017 14:21:16 -8.895073e+01 -4.306214e+02 1 0
78ST25_F19 3 79 14 45 -45 right 1 5.000000e-01 /Users/lab/Documents/magic3Definitivo/stim/2_noeffect.mov 677 26-Apr-2017 14:21:19 4.347173e+02 -3.468006e+02 0 0
78ST25_F19 3 80 17 45 45 left 0 5.000000e-01 /Users/lab/Documents/magic3Definitivo/stim/3_effect.mov 760 26-Apr-2017 14:21:22 4.223426e+02 -1.118714e+02 1 0
