subject_name subjectNumber iTrial unshuffled_trial targetOrientation flankersOrientation response correct onscreen_stim_duration magicShows rt date time_of_day deltaX deltaY surpriseClip isClipTrial
08MS24_F20 4 1 44 -45 -45 left 1 5.000000e-01 /Users/lab/Documents/magic3Definitivo/stim/6_effect.mov 994 27-Apr-2017 14:44:32 6.998095e+01 -3.508965e+02 1 1
08MS24_F20 4 2 30 45 -45 right 1 5.000000e-01 /Users/lab/Documents/magic3Definitivo/stim/4_noeffect.mov 558 27-Apr-2017 14:44:35 3.974544e+02 -1.349515e+02 0 0
08MS24_F20 4 3 20 -45 -45 left 1 5.000000e-01 /Users/lab/Documents/magic3Definitivo/stim/3_effect.mov 1109 27-Apr-2017 14:44:39 1.987305e+01 2.297052e+02 1 0
08MS24_F20 4 4 76 -45 -45 left 1 5.000000e-01 /Users/lab/Documents/magic3Definitivo/stim/10_effect.mov 946 27-Apr-2017 14:44:53 4.276209e+02 3.074329e+02 1 1
08MS24_F20 4 5 49 45 45 right 1 5.000000e-01 /Users/lab/Documents/magic3Definitivo/stim/7_effect.mov 743 27-Apr-2017 14:44:56 2.215244e+02 -4.186232e+02 1 0
08MS24_F20 4 6 55 -45 45 left 1 5.000000e-01 /Users/lab/Documents/magic3Definitivo/stim/7_noeffect.mov 529 27-Apr-2017 14:44:59 -6.433517e+01 -9.567086e+01 0 0
08MS24_F20 4 7 38 45 -45 right 1 5.000000e-01 /Users/lab/Documents/magic3Definitivo/stim/5_noeffect.mov 596 27-Apr-2017 14:45:02 2.558961e+02 4.191194e+02 0 0
08MS24_F20 4 8 65 45 45 right 1 5.000000e-01 /Users/lab/Documents/magic3Definitivo/stim/9_effect.mov 645 27-Apr-2017 14:45:24 -2.008727e+02 3.389386e+02 1 1
08MS24_F20 4 9 61 45 45 right 1 5.000000e-01 /Users/lab/Documents/magic3Definitivo/stim/8_noeffect.mov 577 27-Apr-2017 14:45:27 -7.161051e+00 -2.180887e+02 0 0
08MS24_F20 4 10 18 45 -45 right 1 5.000000e-01 /Users/lab/Documents/magic3Definitivo/stim/3_effect.mov 643 27-Apr-2017 14:45:30 -4.925445e+02 2.031270e+02 1 0
08MS24_F20 4 11 60 -45 -45 left 1 5.000000e-01 /Users/lab/Documents/magic3Definitivo/stim/8_effect.mov 778 27-Apr-2017 14:45:33 -4.496459e+02 -2.313687e+02 1 0
08MS24_F20 4 12 2 45 -45 right 1 5.000000e-01 /Users/lab/Documents/magic3Definitivo/stim/1_effect.mov 794 27-Apr-2017 14:45:58 -1.375700e+02 -2.210310e+02 1 1
08MS24_F20 4 13 47 -45 45 left 1 5.000000e-01 /Users/lab/Documents/magic3Definitivo/stim/6_noeffect.mov 644 27-Apr-2017 14:46:01 -7.233306e+01 -3.901737e+02 0 0
08MS24_F20 4 14 15 -45 45 left 1 5.000000e-01 /Users/lab/Documents/magic3Definitivo/stim/2_noeffect.mov 555 27-Apr-2017 14:46:04 1.490198e+02 -3.341901e+02 0 0
08MS24_F20 4 15 3 -45 45 left 1 5.000000e-01 /Users/lab/Documents/magic3Definitivo/stim/1_effect.mov 1029 27-Apr-2017 14:46:07 -3.867655e+02 -2.146271e+01 1 0
08MS24_F20 4 16 46 45 -45 right 1 5.000000e-01 /Users/lab/Documents/magic3Definitivo/stim/6_noeffect.mov 1011 27-Apr-2017 14:46:22 1.852814e+02 -1.590190e+02 0 1
08MS24_F20 4 17 56 -45 -45 left 1 5.000000e-01 /Users/lab/Documents/magic3Definitivo/stim/7_noeffect.mov 491 27-Apr-2017 14:46:25 -1.596119e+02 4.415665e-01 0 0
08MS24_F20 4 18 28 -45 -45 left 1 5.000000e-01 /Users/lab/Documents/magic3Definitivo/stim/4_effect.mov 463 27-Apr-2017 14:46:28 -2.079290e+02 2.891909e+02 1 0
08MS24_F20 4 19 59 -45 45 left 1 5.000000e-01 /Users/lab/Documents/magic3Definitivo/stim/8_effect.mov 544 27-Apr-2017 14:46:31 -2.351402e+01 4.251105e+02 1 0
08MS24_F20 4 20 43 -45 45 left 1 5.000000e-01 /Users/lab/Documents/magic3Definitivo/stim/6_effect.mov 643 27-Apr-2017 14:46:45 8.096628e+01 -2.943370e+02 1 1
08MS24_F20 4 21 71 -45 45 left 1 5.000000e-01 /Users/lab/Documents/magic3Definitivo/stim/9_noeffect.mov 556 27-Apr-2017 14:46:48 -1.866554e+02 -4.647634e+02 0 0
08MS24_F20 4 22 5 45 45 right 1 5.000000e-01 /Users/lab/Documents/magic3Definitivo/stim/1_noeffect.mov 545 27-Apr-2017 14:46:51 2.812344e+02 -3.334019e+02 1 0
08MS24_F20 4 23 50 45 -45 right 1 5.000000e-01 /Users/lab/Documents/magic3Definitivo/stim/7_effect.mov 660 27-Apr-2017 14:46:54 4.294794e+02 1.497516e+02 1 0
08MS24_F20 4 24 53 45 45 right 1 5.000000e-01 /Users/lab/Documents/magic3Definitivo/stim/7_noeffect.mov 593 27-Apr-2017 14:47:13 1.222722e+02 -1.958816e+02 0 1
08MS24_F20 4 25 64 -45 -45 left 1 5.000000e-01 /Users/lab/Documents/magic3Definitivo/stim/8_noeffect.mov 811 27-Apr-2017 14:47:16 -3.796347e+02 -1.678618e+02 0 0
08MS24_F20 4 26 36 -45 45 left 1 5.000000e-01 /Users/lab/Documents/magic3Definitivo/stim/5_effect.mov 862 27-Apr-2017 14:47:19 -2.800374e+02 1.764442e+02 1 0
08MS24_F20 4 27 70 45 -45 right 1 5.000000e-01 /Users/lab/Documents/magic3Definitivo/stim/9_noeffect.mov 498 27-Apr-2017 14:47:22 -1.110432e+02 -4.611000e+02 0 0
08MS24_F20 4 28 4 -45 -45 left 1 5.000000e-01 /Users/lab/Documents/magic3Definitivo/stim/1_effect.mov 1095 27-Apr-2017 14:47:48 3.020187e+02 -4.665304e+02 1 1
08MS24_F20 4 29 14 45 -45 right 1 5.000000e-01 /Users/lab/Documents/magic3Definitivo/stim/2_noeffect.mov 562 27-Apr-2017 14:47:50 -2.045361e+02 1.469422e+02 0 0
08MS24_F20 4 30 12 -45 -45 left 1 5.000000e-01 /Users/lab/Documents/magic3Definitivo/stim/2_effect.mov 628 27-Apr-2017 14:47:53 -3.998539e+02 -4.154842e+02 1 0
08MS24_F20 4 31 27 -45 45 left 1 5.000000e-01 /Users/lab/Documents/magic3Definitivo/stim/4_effect.mov 590 27-Apr-2017 14:47:56 -1.014092e+02 3.433738e+02 1 0
08MS24_F20 4 32 63 -45 45 left 1 5.000000e-01 /Users/lab/Documents/magic3Definitivo/stim/8_noeffect.mov 696 27-Apr-2017 14:48:17 1.939574e+02 -6.296976e+01 0 1
08MS24_F20 4 33 57 45 45 right 1 5.000000e-01 /Users/lab/Documents/magic3Definitivo/stim/8_effect.mov 447 27-Apr-2017 14:48:20 1.558158e+02 -2.874397e+01 1 0
08MS24_F20 4 34 51 -45 45 left 1 5.000000e-01 /Users/lab/Documents/magic3Definitivo/stim/7_effect.mov 611 27-Apr-2017 14:48:23 -1.934356e+02 4.668801e+02 1 0
08MS24_F20 4 35 78 45 -45 right 1 5.000000e-01 /Users/lab/Documents/magic3Definitivo/stim/10_noeffect.mov 595 27-Apr-2017 14:48:26 -2.446908e+02 -2.723003e+02 0 0
08MS24_F20 4 36 26 45 -45 right 1 5.000000e-01 /Users/lab/Documents/magic3Definitivo/stim/4_effect.mov 692 27-Apr-2017 14:48:43 1.677479e+02 -2.774298e+02 1 1
08MS24_F20 4 37 16 -45 -45 left 1 5.000000e-01 /Users/lab/Documents/magic3Definitivo/stim/2_noeffect.mov 861 27-Apr-2017 14:48:46 3.925925e+02 -2.302323e+02 0 0
08MS24_F20 4 38 45 45 45 right 1 5.000000e-01 /Users/lab/Documents/magic3Definitivo/stim/6_noeffect.mov 612 27-Apr-2017 14:48:49 -3.460421e+02 -3.327305e+02 0 0
08MS24_F20 4 39 1 45 45 right 1 5.000000e-01 /Users/lab/Documents/magic3Definitivo/stim/1_effect.mov 492 27-Apr-2017 14:48:52 -2.443105e+01 -2.299913e+01 1 0
08MS24_F20 4 40 11 -45 45 left 1 5.000000e-01 /Users/lab/Documents/magic3Definitivo/stim/2_effect.mov 693 27-Apr-2017 14:49:17 1.225504e+02 -3.590893e+02 1 1
08MS24_F20 4 41 69 45 45 right 1 5.000000e-01 /Users/lab/Documents/magic3Definitivo/stim/9_noeffect.mov 472 27-Apr-2017 14:49:20 -8.351775e+01 2.524107e+02 0 0
08MS24_F20 4 42 58 45 -45 right 1 5.000000e-01 /Users/lab/Documents/magic3Definitivo/stim/8_effect.mov 561 27-Apr-2017 14:49:23 5.123652e+01 2.460188e+02 1 0
08MS24_F20 4 43 21 45 45 right 1 5.000000e-01 /Users/lab/Documents/magic3Definitivo/stim/3_noeffect.mov 512 27-Apr-2017 14:49:25 3.906109e+02 -3.358034e+02 0 0
08MS24_F20 4 44 80 -45 -45 left 1 5.000000e-01 /Users/lab/Documents/magic3Definitivo/stim/10_noeffect.mov 860 27-Apr-2017 14:49:40 -4.031484e+02 9.305004e+01 0 1
08MS24_F20 4 45 67 -45 45 left 1 5.000000e-01 /Users/lab/Documents/magic3Definitivo/stim/9_effect.mov 595 27-Apr-2017 14:49:42 2.513135e+02 4.744976e+02 1 0
08MS24_F20 4 46 24 -45 -45 left 1 5.000000e-01 /Users/lab/Documents/magic3Definitivo/stim/3_noeffect.mov 595 27-Apr-2017 14:49:45 -1.599418e+02 -1.910862e+02 0 0
08MS24_F20 4 47 40 -45 -45 left 1 5.000000e-01 /Users/lab/Documents/magic3Definitivo/stim/5_noeffect.mov 662 27-Apr-2017 14:49:48 2.683743e+02 -4.539192e+02 0 0
08MS24_F20 4 48 52 -45 -45 left 1 5.000000e-01 /Users/lab/Documents/magic3Definitivo/stim/7_effect.mov 594 27-Apr-2017 14:50:07 -8.880019e+01 -2.615874e+02 1 1
08MS24_F20 4 49 33 45 45 right 1 5.000000e-01 /Users/lab/Documents/magic3Definitivo/stim/5_effect.mov 487 27-Apr-2017 14:50:10 6.550284e+00 -2.774413e+01 1 0
08MS24_F20 4 50 32 -45 -45 left 1 5.000000e-01 /Users/lab/Documents/magic3Definitivo/stim/4_noeffect.mov 678 27-Apr-2017 14:50:13 2.287459e+02 3.745655e+02 0 0
08MS24_F20 4 51 37 45 45 right 1 5.000000e-01 /Users/lab/Documents/magic3Definitivo/stim/5_noeffect.mov 422 27-Apr-2017 14:50:16 -5.819364e+01 -2.133973e+02 0 0
08MS24_F20 4 52 34 45 -45 right 1 5.000000e-01 /Users/lab/Documents/magic3Definitivo/stim/5_effect.mov 595 27-Apr-2017 14:50:33 -1.026133e+02 1.534157e+02 1 1
08MS24_F20 4 53 72 -45 -45 left 1 5.000000e-01 /Users/lab/Documents/magic3Definitivo/stim/9_noeffect.mov 761 27-Apr-2017 14:50:36 1.173382e+02 -2.846259e+02 0 0
08MS24_F20 4 54 7 -45 45 left 1 5.000000e-01 /Users/lab/Documents/magic3Definitivo/stim/1_noeffect.mov 677 27-Apr-2017 14:50:39 -3.665155e+02 3.898042e+02 1 0
08MS24_F20 4 55 48 -45 -45 left 1 5.000000e-01 /Users/lab/Documents/magic3Definitivo/stim/6_noeffect.mov 544 27-Apr-2017 14:50:41 -3.314389e+02 -7.601684e+01 0 0
08MS24_F20 4 56 74 45 -45 right 1 5.000000e-01 /Users/lab/Documents/magic3Definitivo/stim/10_effect.mov 610 27-Apr-2017 14:50:56 -8.206946e+01 1.404053e+02 1 1
08MS24_F20 4 57 75 -45 45 left 1 5.000000e-01 /Users/lab/Documents/magic3Definitivo/stim/10_effect.mov 544 27-Apr-2017 14:50:59 -3.168153e+02 -1.351880e+02 1 0
08MS24_F20 4 58 36 -45 -45 left 1 5.000000e-01 /Users/lab/Documents/magic3Definitivo/stim/5_effect.mov 610 27-Apr-2017 14:51:02 -1.965498e+02 -4.775502e+01 1 0
08MS24_F20 4 59 31 -45 45 left 1 5.000000e-01 /Users/lab/Documents/magic3Definitivo/stim/4_noeffect.mov 754 27-Apr-2017 14:51:05 -4.183998e+02 4.957679e+02 0 0
08MS24_F20 4 60 42 45 -45 right 1 5.000000e-01 /Users/lab/Documents/magic3Definitivo/stim/6_effect.mov 694 27-Apr-2017 14:51:20 3.092729e+02 1.045025e+02 1 1
08MS24_F20 4 61 54 45 -45 right 1 5.000000e-01 /Users/lab/Documents/magic3Definitivo/stim/7_noeffect.mov 578 27-Apr-2017 14:51:23 -2.740546e+02 -4.146881e+02 0 0
08MS24_F20 4 62 9 45 45 right 1 5.000000e-01 /Users/lab/Documents/magic3Definitivo/stim/2_effect.mov 465 27-Apr-2017 14:51:25 -2.552896e+02 -2.985466e+02 1 0
08MS24_F20 4 63 73 45 45 right 1 5.000000e-01 /Users/lab/Documents/magic3Definitivo/stim/10_effect.mov 588 27-Apr-2017 14:51:28 2.920084e+02 -1.681554e+01 1 0
08MS24_F20 4 64 23 -45 45 left 1 5.000000e-01 /Users/lab/Documents/magic3Definitivo/stim/3_noeffect.mov 711 27-Apr-2017 14:51:46 4.715997e+02 3.668815e+01 0 1
08MS24_F20 4 65 77 45 45 right 1 5.000000e-01 /Users/lab/Documents/magic3Definitivo/stim/10_noeffect.mov 447 27-Apr-2017 14:51:49 4.227576e+02 -2.314038e+02 0 0
08MS24_F20 4 66 19 -45 45 left 1 5.000000e-01 /Users/lab/Documents/magic3Definitivo/stim/3_effect.mov 527 27-Apr-2017 14:51:52 3.721538e+02 -4.281071e+02 1 0
08MS24_F20 4 67 8 -45 -45 left 1 5.000000e-01 /Users/lab/Documents/magic3Definitivo/stim/1_noeffect.mov 543 27-Apr-2017 14:51:55 2.858223e+02 4.951891e+02 1 0
08MS24_F20 4 68 10 45 -45 right 1 5.000000e-01 /Users/lab/Documents/magic3Definitivo/stim/2_effect.mov 609 27-Apr-2017 14:52:20 -1.184609e+02 3.747764e+02 1 1
08MS24_F20 4 69 62 45 -45 right 1 5.000000e-01 /Users/lab/Documents/magic3Definitivo/stim/8_noeffect.mov 498 27-Apr-2017 14:52:23 -7.380634e+01 -4.666542e+02 0 0
08MS24_F20 4 70 22 45 -45 right 1 5.000000e-01 /Users/lab/Documents/magic3Definitivo/stim/3_noeffect.mov 728 27-Apr-2017 14:52:26 3.107091e+02 1.802039e+02 0 0
08MS24_F20 4 71 39 -45 45 left 1 5.000000e-01 /Users/lab/Documents/magic3Definitivo/stim/5_noeffect.mov 528 27-Apr-2017 14:52:29 -2.470961e+01 -4.855995e+02 0 0
08MS24_F20 4 72 17 45 45 right 1 5.000000e-01 /Users/lab/Documents/magic3Definitivo/stim/3_effect.mov 627 27-Apr-2017 14:52:47 -2.264093e+02 1.712184e+02 1 1
08MS24_F20 4 73 29 45 45 right 1 5.000000e-01 /Users/lab/Documents/magic3Definitivo/stim/4_noeffect.mov 577 27-Apr-2017 14:52:50 -3.595485e+02 -2.527020e+01 0 0
08MS24_F20 4 74 68 -45 -45 left 1 5.000000e-01 /Users/lab/Documents/magic3Definitivo/stim/9_effect.mov 612 27-Apr-2017 14:52:53 3.782559e+02 9.928146e+01 1 0
08MS24_F20 4 75 25 45 45 right 1 5.000000e-01 /Users/lab/Documents/magic3Definitivo/stim/4_effect.mov 478 27-Apr-2017 14:52:55 -1.485422e+02 4.776447e+02 1 0
08MS24_F20 4 76 66 45 -45 right 1 5.000000e-01 /Users/lab/Documents/magic3Definitivo/stim/9_effect.mov 560 27-Apr-2017 14:53:17 -2.461285e+02 2.812125e+02 1 1
08MS24_F20 4 77 79 -45 45 left 1 5.000000e-01 /Users/lab/Documents/magic3Definitivo/stim/10_noeffect.mov 545 27-Apr-2017 14:53:20 -4.639148e+02 -1.466043e+02 0 0
08MS24_F20 4 78 6 45 -45 right 1 5.000000e-01 /Users/lab/Documents/magic3Definitivo/stim/1_noeffect.mov 511 27-Apr-2017 14:53:23 -1.700392e+02 -2.348283e+02 1 0
08MS24_F20 4 79 13 45 45 right 1 5.000000e-01 /Users/lab/Documents/magic3Definitivo/stim/2_noeffect.mov 545 27-Apr-2017 14:53:25 3.146765e+01 3.939977e+02 0 0
08MS24_F20 4 80 41 45 45 right 1 5.000000e-01 /Users/lab/Documents/magic3Definitivo/stim/6_effect.mov 720 27-Apr-2017 14:53:28 -2.249612e+02 1.292703e+02 1 0
